posz,velx,vely,velz,accx,accy,accz,p1x,p1y,p1z,p2x,p2y,p2z,p3x,p3y,p3z,p4x,p4y,p4z,p5x,p5y,p5z,heatmap
0.7972751259803772,-0.23958274722099304,0.03690195083618164,0.3652460277080536,-0.5834016799926758,-0.18341213464736938,0.10614258050918579,-0.6676890850067139,1.2908935546875,18.0,-0.4286506175994873,1.2228012084960938,17.0,-0.3820159435272217,0.9281158447265625,18.0,0.013806581497192383,0.8261203765869141,18.25,0.1069328784942627,0.4414558410644531,18.75,"[598, 670, 653, 571, 620, 566, 654, 673, 609, 664, 578, 612, 762, 717, 569, 539, 545, 617, 524, 452, 620, 653, 550, 482, 543, 641, 575, 464, 503, 543, 470, 505, 532, 525, 520, 526, 542, 507, 505, 570, 442, 495, 560, 532, 531, 544, 575, 549, 473, 464, 487, 491, 454, 402, 529, 538, 497, 441, 459, 517, 493, 439, 469, 563, 455, 481, 557, 504, 441, 565, 633, 574, 483, 528, 601, 626, 490, 535, 551, 512, 535, 535, 562, 579, 546, 559, 552, 563, 501, 524, 464, 471, 505, 520, 602, 575, 517, 503, 474, 505, 519, 531, 587, 607, 541, 617, 641, 508, 568, 542, 578, 631, 582, 627, 566, 556, 658, 581, 601, 637, 624, 577, 458, 562, 611, 505, 520, 652, 506, 508, 429, 485, 546, 528, 517, 516, 556, 744, 816, 658, 526, 612, 861, 815, 682, 1243, 1614, 1026, 589, 962, 1664, 1638, 942, 738, 1174, 987, 748, 714, 1308, 1537, 893, 779, 609, 808, 946, 808, 594, 815, 755, 973, 1092, 876, 1032, 1283, 1166, 716, 818, 1303, 1300, 858, 825, 1219, 1265, 875, 973, 1718, 1462, 741, 695, 968, 1266, 841, 787, 1680, 1565, 755, 551, 812, 1307, 944, 624, 965, 965, 681, 505, 619, 814, 727, 604, 716, 705, 602, 539, 627, 673, 585, 604, 657, 605, 535, 586, 545, 546, 602, 587, 553, 480, 513, 617, 465, 498, 571, 531, 492, 463, 592, 603, 537, 517, 522, 485, 533, 570, 607, 630, 575, 537, 486, 551, 555, 563, 493, 528, 632, 565, 537, 523, 498, 547, 507, 491, 491, 429, 507, 704, 588, 532, 538, 569, 627, 485, 561, 629, 612, 616, 552, 589, 685, 590, 660, 609, 654, 602, 596, 659, 712, 749, 691, 555, 536, 506, 504, 551, 674, 702, 616, 558, 519, 568, 592, 627, 749, 800, 692, 636, 617, 664, 625, 528, 665, 715, 681, 621, 575, 602, 564, 580, 615, 597, 662, 697, 631, 514, 525, 629, 588, 554, 639, 573, 554, 469, 516, 559, 497, 577, 605, 538, 621, 559, 481, 519, 569, 527, 529, 561, 631, 562, 537, 592, 596, 573, 550, 575, 579, 551, 577, 608, 489, 490, 584, 605, 566, 535, 569, 657, 602, 468, 542, 584, 617, 589, 504, 639, 700, 513, 497, 567, 660, 539, 507, 563, 580, 610, 593, 730, 631, 678, 696, 699, 631, 767, 875, 1474, 842, 1554, 1352, 1214, 906, 2290, 2699, 2476, 1652, 2524, 2150, 1898, 1716, 4239, 4774, 2869, 3196, 2708, 1959, 2131, 2355, 4215, 4091, 2282, 3358, 2367, 1141, 1586, 2093, 2848, 1952, 1565, 2657, 3024, 1804, 1367, 1484, 3032, 2836, 3713, 5006, 6501, 4404, 1931, 3082, 7238, 7385, 5255, 8209, 8920, 5317, 2552, 4930, 10050, 9430, 4222, 7804, 7402, 3771, 2528, 4380, 7235, 5884, 2019, 4739, 4762, 2396, 1556, 2195, 3318, 2519, 1412, 3035, 3078, 1491, 1323, 1993, 2082, 1456, 2847, 6076, 5254, 1778, 1640, 2963, 4471, 2550, 3404, 7554, 6557, 2116, 1636, 2835, 5199, 3097, 2123, 4630, 4067, 1453, 1226, 1683, 3073, 2022, 1944, 3763, 3260, 1116, 1748, 1803, 1710, 1219, 1791, 3087, 2521, 797, 1636, 1770, 1287, 738, 1296, 1815, 1459, 788, 1017, 1413, 1403, 1023, 938, 1084, 958, 632, 563, 954, 1056, 890, 825, 850, 732, 620, 679, 728, 640, 621, 745, 940, 937, 720, 667, 679, 641, 630, 835, 1111, 1048, 727, 660, 727, 739, 684, 741, 1049, 962, 601, 597, 643, 616, 601, 619, 755, 743, 602, 637, 706, 594, 609, 793, 804, 722, 607, 731, 886, 781, 686, 957, 823, 798, 865, 883, 1029, 936, 900, 964, 756, 865, 973, 841, 969, 951, 891, 812, 661, 660, 714, 632, 635, 665, 800, 718, 794, 706, 522, 558, 588, 584, 611, 708, 897, 816, 660, 632, 549, 538, 558, 791, 908, 878, 745, 646, 553, 586, 646, 580, 855, 711, 621, 685, 624, 724, 645, 560, 817, 723, 576, 674, 691, 722, 677, 636, 685, 651, 600, 549, 649, 678, 635, 589, 633, 569, 563, 529, 538, 594, 517, 548, 531, 650, 650, 560, 512, 549, 563, 593, 585, 569, 655, 615, 496, 525, 561, 590, 653, 693, 555, 571, 561, 518, 632, 623, 684, 741, 611, 566, 605, 690, 678, 632, 734, 681, 720, 681, 660, 663, 620, 645, 634, 734, 700, 658, 691, 613, 592, 564, 612, 744, 691, 595, 691, 640, 620, 616, 674, 731, 604, 576, 639, 697, 659, 696, 625, 598, 611, 559, 583, 659, 716, 609, 633, 643, 529, 525, 652, 579, 557, 650, 553, 631, 620, 639, 618, 522, 642, 710, 538, 647, 669, 641, 555, 594, 798, 651, 565, 606, 630, 620, 546, 582, 723, 601, 567, 556, 547, 617, 567, 596, 652, 720, 643, 625, 596, 658, 620, 550, 658, 755, 787, 773, 711, 713, 730, 675, 642, 603, 572, 663, 690, 628, 614, 656, 632, 603, 528, 476, 535, 592, 693, 634, 559, 642, 595, 504, 490, 599, 712, 625, 547, 642, 602, 628, 547, 505, 643, 615, 604, 627, 571, 692, 595, 546, 702, 647, 627, 556, 538, 679, 708, 525, 603, 685, 628, 507, 577, 658, 704, 542, 505, 608, 518, 669, 757, 726, 585, 539, 595, 612, 522, 596, 727, 704, 580, 616, 620, 672, 616, 695, 624, 571, 637, 677, 615, 556, 635, 636, 465, 465, 607, 680, 562, 598, 693, 548, 589, 713, 695, 602, 714, 869, 845, 609, 709, 866, 732, 571, 693, 939, 921, 625, 590, 623, 636, 602, 569, 740, 766, 714, 641, 577, 627, 636, 628, 693, 710, 541, 653, 596, 503, 486, 565, 650, 609, 508, 604, 636, 528, 522, 571, 635, 629, 646, 621, 534, 541, 588, 564, 524, 620, 755, 519, 529, 684, 598, 499, 630, 771, 738, 589, 642, 668, 497, 504, 709, 836, 502, 565, 610, 534, 469, 521, 634, 602, 520, 580, 497, 508, 497, 527, 554, 526, 480, 518, 505, 493, 465, 473, 504, 461, 474, 555, 494, 468, 496, 526, 469, 412, 476, 451, 415, 473, 430, 394, 429, 445, 523, 515, 490, 525, 452, 438, 446, 446, 429, 469, 496, 472, 364, 379, 456, 430, 428, 420, 456, 457, 484, 416, 377, 432, 408, 412, 403, 429, 443, 437, 351, 380, 479, 418, 364, 364, 407, 417, 457, 486]"
0.8343304395675659,-0.29792290925979614,0.018560737371444702,0.3758602738380432,-0.5834016799926758,-0.18341213464736938,0.10614258050918579,-0.5510145425796509,0.9846210479736328,16.25,-0.017862915992736816,0.19054412841796875,26.25,0.10759294033050537,0.1274585723876953,30.5,0.1919931173324585,-0.06394386291503906,27.0,0.2798265218734741,0.6500244140625,16.75,"[452, 530, 597, 584, 534, 584, 597, 531, 457, 504, 619, 701, 626, 597, 601, 533, 581, 589, 654, 604, 554, 575, 513, 494, 430, 505, 517, 465, 456, 508, 533, 418, 436, 443, 460, 464, 435, 451, 528, 475, 490, 471, 570, 530, 501, 444, 534, 606, 468, 557, 476, 514, 631, 546, 525, 580, 565, 534, 520, 564, 665, 523, 456, 584, 482, 510, 601, 531, 465, 490, 474, 467, 489, 563, 601, 539, 437, 481, 551, 461, 452, 572, 584, 435, 398, 477, 502, 461, 504, 564, 542, 488, 464, 509, 540, 557, 565, 515, 523, 560, 522, 535, 580, 573, 626, 570, 464, 566, 619, 617, 556, 560, 579, 645, 503, 464, 593, 594, 535, 520, 587, 650, 523, 487, 499, 593, 583, 554, 548, 620, 619, 552, 527, 535, 594, 567, 587, 619, 787, 657, 565, 630, 702, 713, 930, 1497, 1827, 1225, 567, 986, 1606, 1623, 1359, 1993, 2466, 1653, 780, 1146, 2062, 2117, 1358, 1079, 1192, 1060, 803, 845, 1222, 1513, 1079, 1630, 1458, 835, 845, 1006, 921, 782, 1470, 2784, 2523, 1073, 990, 1218, 1434, 909, 1435, 3253, 3139, 1399, 974, 1734, 2314, 1547, 1158, 2757, 2656, 1158, 721, 1531, 2220, 1460, 805, 1794, 1821, 948, 670, 1181, 1583, 1167, 854, 1152, 1134, 707, 665, 967, 1091, 923, 811, 847, 676, 584, 574, 664, 704, 671, 834, 831, 601, 508, 547, 625, 603, 652, 643, 778, 667, 515, 645, 586, 550, 583, 643, 749, 613, 553, 612, 735, 658, 445, 700, 657, 624, 526, 576, 790, 781, 619, 585, 535, 571, 567, 562, 607, 583, 587, 582, 628, 655, 581, 545, 565, 617, 600, 616, 699, 625, 589, 636, 690, 719, 659, 744, 773, 656, 648, 701, 806, 820, 742, 706, 768, 739, 634, 667, 846, 795, 709, 623, 667, 651, 628, 586, 708, 746, 638, 566, 602, 565, 569, 566, 569, 601, 615, 497, 507, 603, 612, 528, 643, 663, 558, 525, 592, 640, 652, 625, 535, 513, 545, 565, 589, 601, 655, 727, 663, 523, 557, 578, 618, 611, 554, 554, 561, 656, 654, 606, 592, 534, 548, 497, 466, 537, 624, 524, 602, 623, 575, 544, 641, 599, 514, 570, 663, 676, 604, 586, 696, 735, 563, 625, 662, 656, 589, 597, 680, 652, 650, 564, 653, 628, 527, 506, 615, 671, 602, 652, 708, 633, 552, 611, 634, 593, 605, 1706, 2233, 1799, 909, 934, 1277, 1460, 1045, 2408, 3839, 3087, 1265, 1304, 1930, 2467, 1405, 1813, 2921, 2458, 1024, 1115, 1618, 2133, 1270, 1132, 1483, 1592, 1027, 771, 1096, 1357, 1245, 2645, 1864, 1100, 1290, 1474, 1420, 1245, 2128, 8238, 3879, 9184, 8293, 4611, 2375, 9650, 13335, 11172, 11979, 21561, 15779, 6623, 6603, 21661, 25121, 6930, 11906, 17448, 11334, 4191, 7683, 18190, 18548, 2821, 7182, 7217, 3406, 1827, 5603, 8338, 5919, 2668, 6045, 5495, 2160, 1830, 3790, 4999, 2746, 2844, 5634, 5716, 2868, 1887, 3187, 4418, 3211, 2594, 4953, 4865, 2546, 2129, 2488, 3202, 2674, 3386, 5540, 4260, 1116, 3066, 3281, 2031, 984, 3307, 5255, 4007, 1039, 3051, 3835, 2859, 1146, 1797, 2763, 2176, 1008, 1496, 1988, 1918, 1082, 928, 1298, 1069, 729, 816, 879, 879, 640, 784, 868, 951, 780, 700, 587, 609, 770, 607, 945, 1208, 868, 649, 714, 787, 870, 805, 1168, 1127, 751, 605, 635, 799, 763, 916, 1027, 863, 666, 639, 705, 781, 815, 703, 936, 856, 746, 698, 938, 970, 724, 690, 1057, 1187, 1030, 741, 879, 1064, 744, 865, 1040, 1479, 1407, 811, 730, 979, 900, 1371, 1400, 1320, 1275, 1179, 859, 904, 996, 1399, 1579, 1098, 939, 1123, 1364, 1299, 1008, 1121, 1092, 907, 1004, 866, 1107, 1084, 883, 723, 682, 697, 863, 722, 664, 754, 635, 711, 651, 516, 602, 644, 605, 531, 615, 695, 644, 671, 659, 549, 617, 667, 723, 720, 733, 811, 694, 776, 634, 692, 774, 798, 772, 839, 811, 824, 677, 779, 913, 923, 873, 793, 768, 668, 686, 753, 813, 785, 826, 700, 615, 542, 740, 738, 617, 726, 667, 641, 630, 619, 685, 685, 733, 681, 632, 619, 597, 607, 738, 652, 618, 680, 561, 588, 586, 661, 723, 675, 695, 661, 547, 627, 641, 686, 613, 714, 819, 647, 524, 726, 807, 676, 620, 830, 817, 543, 575, 660, 711, 593, 622, 743, 665, 691, 658, 664, 692, 597, 648, 623, 546, 512, 518, 598, 677, 641, 615, 607, 544, 554, 512, 555, 577, 563, 565, 614, 601, 588, 547, 594, 661, 646, 648, 626, 608, 567, 581, 684, 642, 542, 692, 752, 626, 599, 680, 735, 666, 568, 738, 814, 682, 604, 744, 837, 619, 515, 811, 829, 651, 815, 844, 792, 753, 725, 924, 930, 776, 721, 775, 623, 646, 674, 869, 885, 661, 686, 672, 597, 756, 690, 625, 820, 653, 631, 599, 506, 696, 655, 556, 706, 597, 594, 549, 665, 672, 664, 638, 720, 723, 656, 632, 671, 646, 634, 706, 703, 655, 615, 612, 630, 715, 585, 556, 632, 572, 768, 808, 696, 632, 547, 719, 683, 575, 822, 848, 651, 661, 680, 776, 780, 592, 756, 786, 637, 654, 691, 769, 785, 644, 525, 530, 640, 685, 618, 701, 649, 620, 796, 647, 518, 660, 787, 797, 616, 724, 815, 703, 566, 617, 776, 858, 724, 823, 687, 613, 659, 674, 698, 810, 814, 765, 786, 725, 824, 760, 663, 871, 895, 792, 785, 812, 953, 772, 647, 923, 832, 808, 791, 762, 979, 960, 807, 842, 841, 868, 719, 760, 693, 687, 822, 840, 728, 701, 844, 794, 818, 726, 689, 791, 793, 917, 788, 792, 857, 791, 665, 713, 823, 878, 827, 869, 735, 642, 647, 755, 707, 717, 745, 857, 712, 662, 706, 730, 704, 543, 669, 717, 655, 724, 775, 713, 656, 557, 497, 520, 588, 612, 620, 656, 660, 589, 582, 661, 736, 691, 554, 621, 777, 633, 539, 581, 625, 603, 491, 532, 715, 667, 638, 494, 593, 605, 511, 527, 577, 753, 701, 546, 450, 558, 536, 513, 498, 649, 466, 564, 698, 575, 440, 559, 640, 617, 469, 615, 695, 523, 425, 545, 649, 612, 416, 575, 636, 520, 463, 505, 645, 610, 435, 460, 492, 415, 351, 400, 499, 503, 521, 553, 513, 450, 401, 438, 433, 440]"
0.8724471926689148,-0.35626307129859924,0.00021952390670776367,0.38647451996803284,-0.5834016799926758,-0.18341213464736938,0.10614258050918579,-0.8456375598907471,0.20971298217773438,15.5,-0.29746556282043457,0.7699012756347656,20.25,-0.216355562210083,0.7151126861572266,19.0,-0.09833836555480957,0.1700878143310547,16.5,0.33210253715515137,0.5430221557617188,16.25,"[638, 678, 533, 567, 690, 556, 533, 683, 564, 670, 592, 696, 694, 574, 576, 519, 540, 550, 504, 615, 612, 636, 556, 485, 491, 437, 417, 485, 438, 473, 498, 487, 481, 466, 452, 460, 465, 394, 442, 474, 540, 447, 439, 452, 462, 549, 530, 591, 437, 374, 430, 465, 448, 492, 507, 474, 450, 470, 520, 517, 527, 588, 464, 432, 534, 460, 462, 472, 493, 534, 453, 467, 537, 396, 442, 507, 556, 503, 429, 533, 503, 472, 478, 540, 566, 467, 438, 485, 562, 530, 534, 595, 597, 566, 553, 518, 600, 558, 582, 596, 547, 620, 608, 561, 506, 526, 581, 481, 489, 548, 581, 556, 524, 585, 554, 523, 560, 538, 594, 539, 535, 580, 548, 585, 564, 467, 629, 596, 557, 595, 471, 488, 560, 493, 484, 487, 506, 443, 449, 534, 604, 490, 528, 592, 543, 553, 575, 544, 564, 629, 638, 686, 741, 1548, 1876, 1160, 677, 1096, 1758, 1589, 874, 2705, 3460, 1985, 706, 1663, 2890, 2635, 819, 2162, 2441, 1349, 693, 1356, 2073, 1768, 1930, 2941, 2346, 1152, 1077, 1754, 2123, 1405, 2552, 3261, 2750, 1872, 1454, 2234, 2732, 2334, 1667, 1549, 1715, 1545, 1031, 1232, 1662, 1877, 808, 876, 1070, 954, 555, 889, 1177, 1142, 746, 969, 946, 777, 694, 946, 1027, 784, 624, 877, 901, 726, 669, 744, 861, 772, 641, 849, 779, 616, 633, 763, 844, 694, 677, 843, 696, 596, 689, 871, 908, 663, 838, 1060, 923, 572, 661, 883, 969, 778, 911, 956, 925, 761, 687, 806, 848, 857, 835, 775, 725, 694, 691, 764, 740, 781, 680, 776, 752, 545, 625, 703, 628, 610, 872, 964, 739, 593, 696, 820, 712, 668, 676, 695, 621, 658, 719, 804, 751, 599, 579, 628, 631, 659, 630, 707, 784, 611, 554, 535, 516, 618, 493, 697, 908, 698, 624, 619, 584, 563, 553, 689, 753, 674, 675, 618, 523, 558, 673, 660, 599, 640, 590, 623, 589, 593, 605, 623, 610, 559, 602, 583, 614, 593, 651, 660, 609, 623, 626, 607, 574, 587, 668, 635, 596, 634, 546, 601, 606, 655, 615, 563, 628, 581, 711, 635, 512, 553, 674, 632, 554, 652, 611, 638, 558, 490, 562, 573, 593, 596, 562, 610, 550, 566, 623, 551, 641, 627, 846, 1000, 772, 577, 709, 768, 844, 757, 1723, 2679, 2150, 989, 1127, 1350, 1815, 1260, 2391, 4047, 3397, 1477, 1375, 1830, 2651, 1706, 3014, 3110, 3569, 2203, 1411, 1640, 3297, 3312, 3755, 2210, 4753, 3719, 1778, 1555, 5140, 6394, 2795, 1870, 4137, 3278, 1766, 1419, 4598, 5585, 1513, 1105, 2336, 1884, 1294, 824, 2076, 2807, 2243, 1346, 2844, 2290, 1348, 902, 3118, 3970, 3558, 4202, 5664, 3779, 2371, 2799, 5985, 6350, 3792, 7698, 7387, 3419, 2980, 3607, 5256, 3941, 4351, 7778, 7249, 3589, 2393, 3027, 4854, 4062, 4364, 7819, 7475, 3672, 1881, 3588, 6001, 4945, 3090, 6396, 6683, 3496, 1282, 3534, 6154, 5113, 1534, 3947, 4368, 2293, 828, 2026, 3721, 3111, 1581, 3478, 3337, 1555, 983, 1445, 2284, 1644, 1633, 2792, 2323, 994, 1098, 1298, 1661, 1094, 1013, 1542, 1250, 797, 795, 893, 1174, 828, 849, 1084, 1007, 701, 654, 694, 926, 805, 796, 1265, 1156, 801, 677, 832, 1190, 947, 781, 1060, 940, 688, 600, 863, 1058, 808, 749, 916, 908, 728, 637, 878, 926, 747, 773, 1247, 1270, 841, 803, 1017, 1048, 787, 814, 990, 950, 738, 718, 790, 889, 787, 748, 891, 929, 730, 651, 637, 684, 629, 864, 1099, 1222, 1037, 895, 852, 844, 840, 1070, 1026, 1240, 1581, 1289, 809, 1106, 1084, 1214, 1046, 1372, 1816, 1123, 948, 1354, 1102, 998, 991, 1225, 1321, 698, 936, 1092, 925, 840, 964, 910, 727, 663, 753, 700, 644, 865, 769, 619, 633, 750, 825, 604, 656, 706, 755, 795, 750, 712, 809, 687, 659, 727, 666, 741, 767, 739, 790, 783, 738, 757, 733, 794, 752, 699, 772, 776, 762, 632, 681, 808, 605, 617, 880, 915, 734, 720, 744, 673, 682, 601, 949, 1026, 697, 734, 703, 684, 672, 706, 915, 813, 676, 775, 681, 653, 635, 683, 831, 722, 707, 789, 666, 610, 676, 654, 643, 658, 694, 702, 592, 610, 752, 627, 584, 705, 629, 676, 734, 663, 688, 674, 577, 677, 655, 717, 757, 589, 595, 634, 561, 701, 687, 655, 694, 528, 564, 574, 591, 718, 621, 601, 591, 656, 641, 554, 637, 747, 657, 604, 731, 703, 553, 524, 655, 699, 637, 664, 698, 671, 550, 608, 623, 632, 660, 777, 783, 738, 670, 722, 757, 647, 669, 745, 635, 693, 708, 712, 811, 712, 673, 811, 760, 671, 673, 664, 769, 760, 688, 693, 639, 576, 582, 613, 750, 746, 631, 588, 629, 615, 677, 656, 676, 713, 608, 742, 755, 726, 746, 725, 737, 750, 695, 766, 706, 673, 673, 708, 733, 666, 666, 657, 535, 559, 711, 634, 623, 711, 681, 496, 492, 594, 715, 625, 536, 638, 608, 586, 547, 641, 660, 672, 542, 561, 666, 677, 579, 610, 630, 609, 690, 693, 703, 623, 590, 608, 663, 626, 638, 645, 685, 621, 550, 657, 704, 655, 514, 620, 717, 679, 621, 684, 777, 686, 597, 615, 675, 686, 643, 622, 771, 697, 656, 696, 729, 740, 661, 656, 725, 721, 684, 690, 723, 745, 750, 709, 707, 711, 709, 734, 771, 679, 763, 841, 715, 642, 674, 822, 838, 786, 922, 1293, 1042, 721, 862, 1273, 1321, 894, 727, 1182, 984, 713, 810, 1180, 1386, 659, 711, 836, 672, 661, 756, 927, 881, 611, 559, 593, 605, 572, 711, 645, 578, 749, 562, 654, 628, 577, 746, 668, 735, 696, 680, 733, 672, 707, 794, 700, 734, 767, 814, 711, 741, 689, 691, 704, 679, 825, 854, 600, 694, 715, 648, 598, 537, 832, 717, 576, 716, 661, 623, 589, 650, 844, 851, 690, 722, 574, 796, 783, 651, 729, 1100, 943, 617, 467, 819, 1064, 772, 674, 848, 933, 646, 530, 741, 958, 865, 703, 604, 687, 730, 651, 569, 695, 850, 642, 558, 501, 524, 551, 577, 527, 609, 500, 404, 455, 432, 437, 448, 501, 559, 432, 379, 378, 453, 507, 473, 465, 475, 480, 621, 508, 390, 495, 496, 489, 385, 519, 631, 538, 438, 457, 463, 463, 417]"
0.9116253852844238,-0.41460323333740234,-0.018121689558029175,0.39708876609802246,-0.5834016799926758,-0.18341213464736938,0.10614258050918579,-0.7208601236343384,0.4054069519042969,15.5,-0.7164255380630493,0.43959617614746094,15.5,-0.12605345249176025,1.0990619659423828,21.0,0.09023988246917725,0.44875144958496094,21.0,0.35416924953460693,0.1323223114013672,18.0,"[601, 595, 573, 590, 634, 594, 571, 596, 534, 634, 632, 651, 647, 612, 624, 539, 482, 555, 554, 512, 521, 613, 595, 504, 604, 577, 634, 600, 498, 504, 517, 569, 636, 557, 560, 562, 566, 569, 511, 612, 496, 528, 581, 557, 495, 523, 490, 433, 492, 579, 617, 498, 548, 591, 453, 391, 457, 513, 593, 522, 464, 479, 534, 533, 460, 511, 526, 559, 512, 477, 462, 473, 574, 536, 554, 536, 676, 667, 555, 593, 511, 574, 659, 613, 578, 541, 583, 552, 536, 573, 609, 582, 504, 507, 534, 512, 485, 551, 593, 530, 511, 470, 515, 512, 505, 587, 614, 549, 510, 539, 584, 489, 557, 536, 510, 553, 581, 573, 504, 425, 500, 394, 492, 559, 529, 483, 537, 567, 531, 471, 513, 575, 535, 526, 586, 607, 446, 502, 569, 568, 554, 556, 576, 513, 399, 559, 588, 547, 502, 557, 526, 418, 449, 598, 658, 589, 630, 772, 687, 495, 697, 710, 879, 744, 1010, 1350, 1056, 604, 953, 825, 977, 782, 1113, 1389, 884, 755, 843, 1490, 1815, 1289, 997, 1245, 1506, 1395, 1191, 2753, 2706, 1544, 1161, 2617, 3211, 1903, 1531, 2705, 2246, 1218, 1360, 2905, 3331, 1846, 1012, 1551, 1491, 1009, 1025, 1893, 2130, 1320, 880, 1407, 1506, 1003, 672, 1122, 1552, 1246, 739, 1074, 1129, 818, 691, 795, 1127, 1012, 843, 1004, 926, 712, 809, 1063, 1024, 862, 882, 1023, 934, 764, 895, 1312, 1281, 880, 882, 907, 843, 791, 782, 1040, 1119, 855, 940, 1014, 898, 767, 842, 1086, 1042, 756, 933, 1033, 909, 699, 734, 1006, 1078, 814, 746, 793, 709, 539, 556, 742, 717, 645, 687, 855, 774, 608, 716, 919, 816, 630, 673, 707, 610, 577, 745, 1042, 1029, 716, 684, 747, 686, 627, 672, 797, 829, 702, 801, 921, 862, 684, 622, 806, 957, 794, 933, 1065, 867, 652, 734, 1043, 1050, 791, 817, 863, 747, 572, 787, 864, 765, 699, 606, 741, 710, 543, 640, 685, 650, 573, 625, 618, 673, 575, 625, 705, 589, 557, 661, 682, 707, 644, 587, 618, 525, 610, 620, 675, 707, 720, 658, 600, 598, 598, 527, 553, 574, 669, 607, 534, 587, 572, 492, 458, 609, 610, 524, 580, 591, 582, 655, 778, 772, 647, 570, 643, 624, 564, 1517, 2885, 2651, 1269, 887, 1410, 1908, 1216, 2510, 5373, 4890, 1887, 1263, 2192, 3488, 2090, 1902, 3997, 3652, 1504, 1039, 1630, 2619, 1657, 1179, 1639, 1486, 874, 780, 855, 1196, 1116, 1856, 1351, 1632, 1347, 1095, 955, 1407, 2079, 1989, 1090, 1368, 1398, 1218, 1298, 1194, 1879, 1201, 851, 1020, 862, 993, 1193, 1215, 1368, 2577, 1678, 2624, 1887, 1448, 1585, 3395, 4075, 5107, 5576, 9409, 6253, 2366, 4218, 10825, 11743, 4270, 10485, 13015, 7293, 2149, 6538, 13190, 11845, 3610, 12243, 13245, 6781, 2104, 6492, 10026, 6618, 1924, 7277, 8494, 4775, 1575, 4324, 6864, 5188, 1405, 2264, 2989, 1991, 900, 1716, 3195, 3129, 1499, 2028, 2140, 1219, 832, 1580, 2665, 2517, 1539, 2063, 1664, 852, 1082, 2027, 2140, 1341, 1430, 2084, 1686, 887, 958, 1864, 1753, 595, 1094, 1621, 1535, 947, 857, 944, 947, 902, 829, 1151, 1083, 796, 740, 747, 877, 826, 715, 808, 832, 702, 712, 796, 813, 793, 720, 804, 1057, 763, 638, 755, 900, 966, 839, 906, 1151, 818, 721, 755, 1052, 1137, 707, 722, 780, 685, 709, 730, 869, 886, 898, 1069, 983, 787, 626, 705, 790, 768, 889, 1111, 1047, 733, 599, 730, 875, 844, 613, 722, 770, 750, 679, 714, 752, 677, 926, 860, 860, 794, 600, 735, 753, 774, 1166, 1306, 1105, 896, 646, 1079, 1118, 798, 1067, 997, 1026, 1028, 707, 1121, 1019, 759, 850, 791, 962, 854, 721, 992, 817, 688, 828, 973, 906, 795, 803, 965, 746, 616, 803, 856, 743, 671, 810, 779, 593, 586, 690, 620, 624, 636, 637, 652, 660, 666, 670, 689, 711, 789, 724, 808, 798, 615, 595, 685, 662, 655, 627, 679, 628, 597, 628, 776, 769, 651, 585, 669, 638, 554, 676, 807, 818, 657, 698, 724, 613, 635, 637, 662, 740, 623, 599, 655, 775, 739, 534, 669, 761, 697, 519, 598, 697, 613, 698, 714, 835, 831, 626, 618, 592, 652, 749, 674, 678, 757, 634, 601, 650, 753, 725, 619, 696, 781, 727, 591, 685, 742, 598, 597, 615, 570, 652, 612, 620, 663, 611, 574, 594, 542, 548, 582, 651, 652, 631, 629, 614, 599, 648, 654, 712, 634, 808, 714, 722, 718, 723, 743, 713, 749, 934, 674, 691, 842, 664, 853, 814, 786, 905, 692, 728, 840, 627, 911, 846, 788, 610, 722, 749, 757, 636, 688, 782, 716, 627, 685, 611, 601, 655, 514, 687, 696, 511, 509, 540, 568, 509, 612, 648, 609, 550, 520, 517, 566, 629, 624, 554, 587, 552, 664, 577, 506, 549, 496, 585, 567, 739, 767, 731, 697, 549, 643, 674, 670, 888, 783, 706, 754, 663, 576, 660, 808, 814, 664, 667, 835, 651, 565, 595, 733, 735, 683, 711, 775, 653, 604, 572, 687, 758, 758, 660, 622, 608, 649, 698, 770, 827, 718, 630, 636, 572, 607, 808, 887, 842, 717, 751, 788, 693, 622, 782, 929, 935, 910, 1061, 1042, 776, 708, 1029, 1181, 842, 918, 1027, 1039, 862, 785, 1058, 1054, 691, 846, 823, 661, 613, 674, 864, 780, 743, 707, 677, 618, 589, 612, 679, 799, 1153, 999, 875, 687, 713, 744, 818, 1015, 977, 948, 844, 646, 693, 771, 1061, 1051, 871, 770, 776, 635, 625, 727, 991, 1026, 815, 654, 660, 635, 605, 695, 826, 864, 659, 605, 657, 690, 621, 647, 679, 660, 681, 620, 741, 774, 694, 749, 766, 793, 647, 656, 631, 740, 745, 809, 789, 702, 599, 746, 729, 646, 691, 689, 714, 591, 653, 702, 753, 673, 583, 594, 777, 767, 667, 668, 746, 688, 650, 683, 904, 875, 590, 785, 724, 529, 485, 679, 765, 550, 805, 904, 746, 483, 605, 877, 797, 655, 695, 733, 636, 463, 603, 850, 662, 526, 731, 526, 509, 551, 505, 586, 476, 643, 621, 569, 558, 492, 512, 625, 567, 592, 520, 582, 600, 475, 441, 554, 608, 556, 423, 492, 443, 381, 474, 495, 506, 466, 367, 416, 408, 404, 370, 478, 488, 418]"
0.9518649578094482,-0.47294339537620544,-0.03646290302276611,0.4077030122280121,-0.5834016799926758,-0.18341213464736938,0.10614258050918579,-1.0887763500213623,0.7879257202148438,17.5,-0.7242820262908936,0.5783557891845703,19.0,-0.49683070182800293,0.9025096893310547,16.75,-0.39926981925964355,0.9083747863769531,24.0,-0.34691309928894043,0.9113788604736328,23.0,"[524, 486, 456, 575, 645, 576, 457, 484, 576, 576, 524, 591, 652, 632, 575, 547, 525, 545, 520, 530, 590, 622, 584, 543, 527, 487, 422, 429, 506, 493, 466, 445, 503, 493, 525, 429, 485, 518, 486, 497, 474, 483, 459, 423, 479, 537, 520, 503, 488, 477, 483, 567, 567, 475, 503, 561, 471, 547, 585, 549, 537, 536, 562, 545, 487, 459, 507, 505, 491, 536, 542, 566, 519, 441, 514, 576, 527, 569, 560, 573, 434, 475, 556, 507, 450, 527, 564, 520, 558, 486, 436, 518, 581, 528, 507, 494, 511, 493, 538, 583, 583, 560, 493, 515, 590, 459, 538, 563, 523, 477, 531, 594, 529, 490, 496, 539, 564, 549, 515, 525, 573, 566, 509, 598, 573, 506, 524, 540, 549, 484, 494, 520, 504, 445, 470, 564, 556, 497, 513, 542, 474, 452, 429, 546, 526, 573, 643, 605, 519, 566, 536, 495, 489, 604, 631, 528, 576, 621, 558, 495, 568, 547, 508, 456, 540, 618, 583, 574, 612, 631, 542, 478, 553, 578, 599, 550, 650, 955, 994, 767, 753, 1025, 978, 771, 1131, 2162, 2471, 1591, 1491, 2475, 2444, 1456, 2067, 3751, 3847, 2138, 2427, 3923, 3759, 2069, 2947, 5021, 4599, 2240, 2974, 4748, 4434, 2289, 2846, 4920, 4210, 1768, 2308, 4142, 4290, 2327, 1769, 2767, 2365, 1186, 1248, 2473, 2806, 1777, 993, 1528, 1466, 909, 824, 1442, 1597, 1171, 904, 1559, 1346, 702, 776, 1157, 1326, 802, 976, 1473, 1240, 640, 652, 1028, 1184, 757, 833, 1145, 982, 541, 639, 992, 985, 654, 884, 1264, 1201, 768, 707, 1071, 1238, 916, 937, 1236, 1154, 748, 697, 944, 1115, 893, 1030, 1246, 1028, 725, 637, 949, 1031, 743, 1021, 1083, 816, 646, 810, 986, 975, 767, 746, 828, 709, 620, 730, 871, 787, 631, 569, 607, 682, 609, 671, 759, 658, 615, 676, 665, 642, 582, 621, 794, 737, 666, 675, 679, 712, 562, 581, 801, 710, 581, 610, 708, 698, 579, 563, 559, 609, 598, 462, 578, 579, 523, 510, 540, 631, 506, 651, 661, 647, 605, 568, 617, 661, 570, 631, 730, 640, 581, 503, 556, 612, 534, 618, 636, 618, 706, 619, 616, 666, 621, 593, 655, 672, 670, 594, 542, 607, 595, 675, 733, 658, 603, 538, 647, 660, 583, 1167, 1706, 1410, 677, 711, 963, 1159, 828, 1235, 2302, 1988, 888, 862, 1114, 1535, 1035, 897, 1520, 1368, 720, 596, 821, 1053, 815, 774, 828, 843, 673, 631, 739, 788, 770, 2728, 1044, 2002, 1859, 1594, 886, 2772, 3917, 5576, 2103, 5478, 4135, 3144, 1675, 7213, 9492, 5066, 2542, 5410, 3710, 3133, 1879, 7548, 9334, 3165, 1926, 2027, 1997, 1762, 1438, 3186, 4142, 5123, 2275, 5490, 4551, 2422, 1396, 5352, 7934, 6878, 7062, 12629, 8733, 3358, 4263, 12775, 15025, 5220, 7383, 11259, 7253, 2691, 4738, 11847, 12684, 2944, 4428, 5639, 3551, 1864, 2533, 5684, 5912, 1806, 2239, 2192, 1532, 1553, 1378, 1724, 1910, 1498, 2635, 2214, 925, 1089, 1847, 2152, 1236, 1356, 3152, 2865, 1288, 1006, 2262, 3033, 1861, 1177, 2271, 2082, 1010, 821, 1829, 2442, 1582, 827, 1243, 1140, 730, 762, 1330, 1554, 1069, 695, 731, 760, 655, 718, 913, 855, 717, 624, 788, 839, 699, 661, 791, 732, 658, 721, 681, 856, 832, 700, 864, 972, 840, 941, 954, 1195, 965, 771, 951, 1016, 1137, 1010, 1213, 1617, 1191, 834, 964, 1423, 1611, 782, 1270, 1397, 922, 738, 1107, 1645, 1479, 801, 1106, 1085, 854, 784, 977, 1212, 1035, 818, 1128, 1225, 918, 675, 793, 842, 788, 836, 1213, 1135, 894, 825, 902, 900, 725, 1165, 1112, 905, 878, 1049, 1148, 874, 857, 1140, 1048, 842, 872, 973, 1076, 894, 819, 588, 858, 972, 846, 714, 771, 715, 632, 668, 822, 993, 877, 692, 671, 706, 690, 782, 924, 899, 819, 751, 761, 729, 687, 674, 754, 688, 644, 642, 740, 842, 752, 742, 733, 615, 579, 638, 705, 770, 758, 648, 776, 732, 553, 552, 706, 772, 617, 604, 696, 646, 621, 579, 678, 730, 649, 627, 575, 550, 519, 584, 584, 604, 659, 665, 599, 621, 582, 573, 536, 612, 684, 613, 645, 644, 617, 515, 555, 610, 663, 724, 663, 683, 623, 635, 648, 598, 672, 651, 619, 705, 634, 568, 570, 712, 806, 783, 584, 591, 680, 718, 632, 740, 869, 729, 631, 537, 552, 634, 638, 643, 679, 667, 659, 596, 571, 579, 691, 650, 572, 624, 730, 648, 650, 573, 630, 752, 684, 606, 763, 793, 652, 649, 743, 766, 723, 613, 755, 793, 629, 755, 976, 914, 646, 686, 678, 606, 657, 658, 809, 835, 633, 722, 670, 538, 631, 661, 637, 610, 534, 712, 752, 654, 637, 725, 693, 487, 583, 666, 607, 627, 560, 538, 582, 635, 673, 622, 561, 595, 594, 579, 570, 597, 640, 659, 557, 589, 637, 611, 527, 629, 683, 546, 603, 554, 507, 553, 585, 610, 586, 646, 602, 581, 593, 707, 757, 585, 607, 716, 660, 596, 597, 672, 616, 617, 699, 699, 805, 704, 641, 675, 569, 662, 681, 666, 733, 712, 687, 590, 591, 627, 601, 625, 736, 724, 604, 545, 582, 660, 533, 705, 666, 705, 674, 521, 544, 676, 738, 678, 723, 632, 585, 526, 585, 575, 558, 705, 799, 696, 621, 606, 617, 581, 603, 637, 746, 746, 555, 653, 666, 579, 595, 572, 746, 648, 524, 617, 683, 725, 630, 649, 667, 557, 548, 589, 605, 688, 659, 696, 755, 672, 671, 648, 680, 662, 614, 720, 792, 661, 517, 542, 673, 718, 666, 794, 725, 739, 645, 618, 716, 877, 873, 712, 721, 779, 676, 685, 737, 804, 830, 910, 816, 750, 769, 760, 806, 805, 870, 982, 853, 767, 787, 737, 883, 948, 964, 820, 738, 617, 785, 748, 736, 835, 864, 664, 689, 574, 653, 656, 776, 779, 710, 670, 675, 651, 609, 551, 690, 735, 630, 756, 726, 699, 544, 522, 598, 677, 778, 725, 1089, 1033, 609, 533, 809, 1128, 977, 724, 1025, 928, 585, 605, 936, 1083, 837, 712, 877, 770, 570, 671, 820, 846, 638, 670, 723, 507, 514, 604, 702, 653, 538, 496, 582, 501, 481, 456, 484, 520, 433, 528, 473, 509, 435, 485, 481, 502, 538, 535, 498, 448, 510, 439, 462, 479, 502]"
0.8113782405853271,-0.20526686310768127,0.2756069600582123,0.35754111409187317,-0.029447495937347412,0.48381078243255615,0.37383896112442017,-0.7209218740463257,0.36907196044921875,20.5,-0.6694234609603882,0.13217926025390625,18.0,-0.6143487691879272,0.6169795989990234,20.0,-0.5293763875961304,-0.5580425262451172,15.25,-0.5140699148178101,0.40683746337890625,20.25,"[562, 570, 610, 678, 723, 683, 613, 565, 478, 533, 663, 676, 648, 649, 596, 559, 498, 544, 505, 525, 576, 577, 560, 500, 486, 486, 416, 430, 537, 488, 472, 496, 613, 514, 424, 502, 546, 507, 388, 549, 700, 610, 478, 531, 589, 620, 533, 638, 565, 518, 479, 488, 497, 522, 510, 491, 484, 525, 516, 521, 465, 506, 581, 555, 583, 503, 471, 525, 522, 471, 460, 535, 496, 507, 491, 480, 415, 449, 518, 503, 530, 556, 566, 562, 455, 529, 554, 515, 582, 484, 477, 562, 546, 575, 546, 577, 586, 519, 465, 465, 529, 489, 450, 520, 626, 570, 471, 523, 577, 565, 505, 518, 495, 663, 539, 421, 530, 586, 509, 439, 585, 620, 641, 483, 480, 560, 561, 591, 515, 504, 513, 451, 431, 546, 560, 538, 500, 512, 509, 488, 499, 578, 612, 580, 494, 539, 528, 564, 583, 586, 685, 578, 582, 650, 572, 541, 561, 592, 611, 617, 555, 537, 549, 546, 464, 492, 574, 592, 515, 511, 601, 641, 561, 500, 521, 521, 493, 543, 620, 629, 603, 534, 583, 559, 547, 571, 574, 508, 610, 608, 496, 529, 568, 673, 579, 523, 582, 575, 597, 547, 477, 786, 783, 584, 498, 627, 888, 753, 666, 1013, 1155, 830, 528, 713, 1060, 959, 1369, 1779, 1505, 940, 968, 1134, 1154, 811, 2709, 4319, 3720, 1788, 1806, 2973, 3152, 1774, 3715, 6005, 5437, 2983, 3121, 5654, 5989, 3486, 3167, 4694, 4252, 2629, 3455, 6101, 6138, 3406, 1783, 2103, 1989, 1430, 2080, 3324, 3100, 1766, 729, 907, 908, 594, 779, 1189, 1005, 699, 826, 1073, 996, 627, 639, 842, 821, 636, 1220, 1731, 1380, 753, 881, 1470, 1549, 908, 1226, 1553, 1240, 776, 932, 1551, 1725, 1081, 931, 994, 870, 780, 815, 1032, 1086, 853, 834, 917, 750, 682, 781, 848, 810, 711, 794, 834, 632, 571, 684, 779, 696, 621, 655, 652, 613, 614, 644, 645, 620, 522, 587, 678, 590, 596, 626, 650, 718, 549, 608, 706, 610, 511, 636, 791, 769, 584, 665, 723, 591, 490, 732, 849, 698, 588, 607, 627, 666, 584, 602, 703, 645, 611, 517, 492, 628, 594, 636, 684, 746, 696, 665, 600, 589, 602, 637, 623, 640, 682, 674, 684, 671, 618, 684, 664, 752, 708, 929, 1283, 1346, 880, 802, 836, 987, 830, 1583, 2826, 2579, 1242, 1121, 1424, 1837, 1170, 1718, 3162, 2834, 1225, 1090, 1512, 2145, 1420, 1068, 1848, 1689, 866, 782, 1002, 1297, 888, 703, 1195, 1224, 843, 891, 835, 895, 822, 1482, 1160, 1316, 1052, 1247, 808, 1645, 2248, 1959, 996, 1605, 1477, 1332, 1024, 2639, 3301, 1227, 1167, 1332, 1135, 990, 1182, 1867, 1937, 1151, 2116, 1994, 1132, 1116, 1481, 1534, 985, 1479, 3146, 3347, 1784, 1402, 1475, 2187, 1906, 1200, 2386, 2743, 1710, 1059, 1144, 1990, 1947, 625, 1414, 1821, 1347, 704, 1277, 1778, 1402, 1069, 2306, 2601, 1492, 771, 1662, 2249, 1769, 1571, 3354, 3277, 1564, 944, 1743, 2890, 2211, 1538, 3094, 2742, 1071, 980, 1439, 2141, 1404, 1131, 2107, 1911, 890, 817, 1058, 1412, 962, 812, 1326, 1329, 871, 702, 931, 1201, 969, 693, 1068, 1075, 736, 579, 763, 918, 769, 741, 1056, 890, 613, 621, 708, 820, 662, 700, 885, 720, 682, 617, 703, 776, 558, 750, 932, 991, 832, 634, 732, 822, 664, 974, 1320, 1329, 1061, 818, 868, 985, 841, 1138, 1513, 1469, 1104, 863, 1030, 1077, 955, 945, 1075, 1186, 866, 707, 949, 890, 835, 841, 820, 761, 702, 724, 895, 833, 711, 782, 922, 898, 740, 698, 923, 1014, 774, 710, 955, 1129, 909, 721, 1022, 1152, 930, 780, 759, 786, 819, 705, 900, 872, 789, 711, 667, 778, 778, 668, 726, 739, 706, 591, 707, 698, 572, 657, 688, 624, 604, 634, 657, 640, 576, 685, 737, 644, 611, 610, 585, 517, 604, 591, 544, 507, 515, 679, 629, 593, 669, 604, 624, 626, 595, 805, 777, 617, 660, 656, 735, 740, 644, 764, 884, 725, 626, 650, 745, 802, 612, 671, 676, 669, 606, 533, 566, 647, 711, 685, 623, 657, 634, 523, 551, 628, 688, 588, 528, 590, 555, 559, 560, 629, 644, 545, 604, 579, 615, 565, 613, 651, 630, 531, 594, 576, 606, 544, 648, 748, 629, 665, 677, 607, 633, 615, 636, 704, 628, 668, 707, 626, 577, 564, 714, 661, 571, 629, 710, 707, 647, 580, 581, 584, 537, 527, 508, 568, 568, 517, 465, 541, 582, 638, 603, 525, 580, 508, 490, 453, 528, 642, 697, 748, 701, 612, 679, 584, 581, 787, 763, 850, 890, 700, 763, 784, 829, 882, 767, 810, 856, 674, 856, 994, 909, 829, 694, 633, 801, 711, 736, 791, 778, 566, 582, 602, 576, 618, 614, 513, 504, 534, 463, 541, 573, 562, 595, 552, 550, 567, 530, 554, 592, 599, 605, 617, 636, 611, 543, 579, 632, 648, 668, 622, 596, 682, 620, 621, 619, 629, 637, 619, 677, 586, 530, 602, 591, 586, 626, 654, 618, 676, 636, 619, 633, 707, 720, 642, 626, 776, 605, 667, 728, 780, 796, 644, 706, 707, 636, 652, 651, 709, 791, 603, 589, 610, 659, 661, 639, 705, 760, 754, 590, 652, 685, 585, 599, 609, 606, 675, 622, 705, 690, 627, 642, 620, 625, 733, 687, 603, 684, 757, 622, 661, 700, 767, 654, 614, 715, 793, 663, 555, 609, 703, 694, 722, 749, 831, 765, 612, 668, 783, 792, 779, 860, 889, 752, 643, 705, 796, 908, 963, 809, 996, 887, 697, 666, 917, 1170, 1053, 840, 1042, 940, 588, 646, 924, 1243, 976, 695, 1091, 971, 619, 590, 1059, 1328, 915, 634, 1013, 951, 731, 589, 916, 1207, 836, 573, 882, 822, 648, 560, 759, 1039, 824, 557, 845, 798, 616, 541, 723, 1050, 789, 656, 763, 816, 706, 559, 776, 945, 644, 670, 641, 611, 688, 650, 729, 762, 542, 610, 541, 503, 549, 626, 689, 609, 624, 862, 869, 606, 583, 772, 941, 816, 737, 1251, 1206, 683, 568, 946, 1243, 943, 815, 1182, 1024, 693, 522, 867, 1128, 854, 621, 824, 772, 532, 455, 666, 742, 579, 537, 635, 582, 490, 547, 663, 617, 539, 550, 486, 461, 435, 482, 576, 498, 528, 499, 429, 475, 456, 489, 516, 481, 523]"
0.651161789894104,0.05503028631210327,0.1998504102230072,0.020594075322151184,0.1259574145078659,0.17389895021915436,-0.035698845982551575,-0.2051464319229126,0.7368564605712891,15.75,-0.18826639652252197,-1.0741710662841797,16.25,0.014007925987243652,-0.8186817169189453,17.5,0.12372815608978271,-0.6900787353515625,17.75,0.4234203100204468,0.2766609191894531,17.75,"[515, 508, 564, 636, 648, 637, 571, 505, 526, 543, 586, 589, 671, 666, 621, 577, 487, 532, 624, 535, 562, 630, 627, 577, 581, 602, 564, 458, 482, 568, 566, 524, 557, 612, 505, 488, 527, 523, 562, 484, 635, 585, 466, 610, 661, 510, 543, 608, 630, 553, 511, 539, 522, 503, 509, 568, 547, 524, 543, 591, 568, 488, 465, 556, 474, 489, 442, 489, 574, 515, 411, 412, 521, 550, 489, 563, 605, 531, 485, 472, 458, 533, 528, 471, 515, 570, 535, 464, 510, 591, 565, 515, 488, 569, 584, 498, 544, 597, 516, 501, 498, 540, 517, 445, 576, 547, 590, 565, 519, 575, 581, 639, 591, 615, 599, 514, 472, 610, 586, 607, 606, 575, 679, 618, 572, 552, 572, 651, 515, 502, 558, 558, 484, 482, 555, 577, 541, 500, 474, 516, 551, 557, 526, 518, 537, 447, 432, 553, 558, 589, 587, 476, 610, 571, 522, 588, 570, 577, 581, 531, 540, 506, 463, 425, 431, 495, 542, 569, 587, 602, 535, 503, 529, 514, 520, 590, 491, 533, 484, 463, 484, 478, 499, 453, 603, 593, 490, 575, 582, 585, 610, 528, 481, 538, 552, 536, 473, 567, 620, 468, 529, 589, 614, 613, 494, 480, 598, 545, 638, 544, 642, 667, 580, 556, 576, 592, 569, 501, 565, 646, 566, 562, 602, 571, 542, 502, 537, 576, 608, 540, 541, 596, 572, 493, 475, 527, 614, 578, 504, 575, 587, 580, 555, 554, 576, 515, 530, 576, 569, 961, 1008, 694, 544, 707, 920, 738, 601, 1284, 1314, 823, 513, 767, 1187, 925, 741, 1123, 1090, 740, 633, 754, 918, 719, 713, 657, 556, 554, 587, 585, 563, 617, 758, 863, 912, 743, 558, 651, 905, 961, 594, 868, 1013, 800, 563, 605, 927, 913, 617, 737, 806, 698, 545, 553, 768, 753, 712, 764, 682, 527, 533, 634, 666, 697, 701, 823, 755, 584, 637, 710, 736, 675, 652, 818, 730, 568, 584, 695, 653, 506, 768, 836, 756, 639, 578, 680, 770, 673, 675, 765, 713, 643, 629, 755, 783, 657, 686, 658, 575, 590, 676, 777, 755, 630, 647, 735, 623, 621, 674, 699, 721, 648, 598, 747, 620, 628, 681, 666, 687, 577, 639, 688, 564, 623, 657, 585, 614, 547, 637, 664, 599, 586, 689, 677, 699, 627, 682, 761, 705, 611, 703, 723, 714, 712, 1296, 2213, 1763, 675, 1005, 1289, 1418, 744, 2244, 3980, 3190, 1106, 1562, 2346, 2725, 1178, 1892, 3077, 2341, 1001, 1353, 1940, 2298, 1131, 1323, 1379, 1605, 1215, 1102, 1193, 2145, 2193, 2074, 1173, 2124, 1744, 1333, 1368, 3446, 3892, 1448, 970, 1774, 1340, 921, 1135, 2701, 2954, 865, 1590, 1860, 1114, 823, 1079, 1936, 1882, 922, 2870, 3224, 1725, 1025, 1704, 2581, 2087, 1523, 4564, 4866, 2407, 1388, 2076, 3543, 2912, 1898, 5051, 4961, 1997, 1687, 2039, 3370, 2574, 2162, 5498, 5331, 2121, 1662, 2800, 4534, 3277, 2307, 5542, 5537, 2440, 1269, 3428, 5320, 3882, 1739, 3269, 3407, 1692, 1133, 2505, 3454, 2620, 962, 1056, 1174, 884, 782, 1017, 1051, 1127, 672, 907, 1127, 895, 670, 755, 862, 854, 666, 778, 922, 866, 661, 780, 872, 739, 729, 887, 768, 694, 635, 779, 816, 662, 640, 796, 667, 591, 643, 749, 748, 589, 574, 677, 740, 594, 599, 750, 757, 624, 560, 696, 715, 592, 575, 641, 617, 581, 656, 710, 768, 682, 646, 664, 637, 670, 711, 741, 749, 751, 689, 691, 675, 626, 600, 553, 675, 699, 602, 653, 650, 611, 559, 612, 653, 612, 582, 638, 632, 556, 708, 672, 565, 623, 683, 763, 675, 569, 660, 757, 834, 748, 716, 797, 743, 567, 604, 843, 897, 630, 577, 781, 845, 639, 629, 876, 936, 549, 636, 876, 814, 624, 665, 716, 732, 671, 782, 780, 664, 684, 675, 627, 607, 692, 673, 672, 621, 679, 728, 667, 654, 632, 688, 697, 561, 664, 801, 676, 600, 650, 643, 615, 580, 767, 695, 698, 696, 616, 547, 564, 672, 731, 708, 835, 828, 668, 656, 702, 826, 822, 651, 749, 807, 668, 663, 699, 682, 685, 697, 722, 653, 590, 584, 655, 634, 574, 713, 732, 689, 664, 694, 684, 755, 694, 624, 644, 597, 692, 671, 770, 817, 632, 639, 656, 552, 572, 545, 595, 616, 550, 498, 625, 648, 556, 418, 511, 648, 603, 564, 580, 674, 629, 497, 536, 661, 687, 528, 612, 658, 712, 599, 565, 644, 528, 551, 517, 591, 729, 629, 601, 664, 584, 595, 517, 489, 680, 620, 479, 585, 586, 550, 632, 662, 593, 658, 606, 586, 552, 648, 648, 774, 806, 652, 680, 684, 624, 710, 629, 657, 732, 595, 592, 651, 642, 635, 640, 630, 605, 459, 728, 695, 552, 575, 502, 569, 540, 544, 769, 671, 526, 506, 475, 516, 539, 583, 703, 668, 649, 550, 576, 614, 559, 541, 543, 600, 619, 519, 481, 544, 561, 545, 566, 648, 619, 621, 561, 614, 565, 502, 525, 626, 656, 651, 618, 570, 581, 463, 529, 531, 546, 670, 716, 652, 691, 652, 555, 604, 596, 514, 551, 548, 638, 625, 545, 572, 558, 532, 584, 620, 524, 441, 620, 685, 600, 657, 574, 712, 663, 529, 649, 576, 592, 557, 588, 603, 607, 669, 651, 545, 511, 537, 611, 645, 593, 577, 646, 677, 639, 729, 549, 653, 685, 624, 621, 689, 769, 661, 521, 563, 673, 649, 639, 664, 669, 675, 580, 545, 707, 560, 488, 657, 725, 820, 726, 623, 757, 587, 727, 778, 669, 940, 889, 619, 784, 614, 698, 630, 611, 684, 629, 648, 618, 624, 643, 674, 714, 575, 696, 671, 551, 530, 656, 742, 594, 692, 708, 708, 594, 506, 649, 692, 635, 634, 686, 681, 559, 591, 663, 643, 650, 539, 665, 644, 558, 553, 660, 663, 522, 583, 593, 523, 534, 590, 548, 519, 507, 580, 568, 508, 561, 634, 505, 424, 527, 488, 584, 620, 568, 558, 509, 510, 514, 486, 506, 390, 463, 469, 406, 439, 431, 445, 494, 458, 438, 438, 478, 505, 426, 495, 516, 441, 393, 462, 384, 403, 440, 493, 534, 455, 381, 411, 375, 440, 476, 506, 583, 488, 418, 495, 602, 555, 434, 357, 416, 409, 384, 410, 482, 500, 403]"
0.35055696964263916,-0.060663215816020966,0.01432587206363678,-0.5666218400001526,-0.20011937618255615,-0.34983527660369873,-0.6289020776748657,-1.5142239332199097,1.5714168548583984,20.0,-1.0103977918624878,1.5180587768554688,20.25,-0.47538650035858154,1.2558460235595703,15.75,-0.2925671339035034,0.45332908630371094,18.0,-0.28655898571014404,0.46863555908203125,15.0,"[561, 607, 664, 638, 416, 638, 665, 606, 596, 549, 641, 676, 505, 496, 589, 643, 425, 498, 532, 571, 515, 530, 543, 499, 576, 519, 456, 535, 524, 464, 432, 516, 602, 545, 518, 495, 472, 483, 503, 557, 655, 539, 595, 560, 554, 541, 532, 620, 573, 473, 568, 596, 557, 483, 502, 658, 519, 586, 710, 605, 455, 475, 525, 514, 434, 536, 661, 615, 526, 552, 530, 421, 551, 641, 649, 561, 510, 570, 544, 511, 499, 507, 536, 563, 510, 529, 544, 503, 512, 455, 442, 482, 543, 525, 456, 518, 508, 543, 496, 540, 603, 519, 521, 503, 581, 559, 566, 602, 524, 489, 554, 556, 507, 547, 575, 574, 531, 440, 469, 498, 511, 523, 529, 577, 585, 547, 477, 477, 522, 521, 612, 638, 594, 595, 589, 555, 500, 491, 547, 606, 517, 530, 634, 593, 511, 510, 553, 626, 557, 492, 509, 562, 475, 553, 548, 486, 468, 485, 564, 544, 537, 594, 563, 530, 541, 510, 503, 512, 455, 519, 627, 617, 597, 543, 479, 471, 517, 560, 497, 492, 585, 520, 466, 481, 540, 460, 471, 460, 474, 489, 515, 577, 502, 458, 473, 506, 588, 495, 566, 577, 549, 549, 556, 564, 605, 545, 485, 540, 567, 573, 539, 571, 559, 631, 579, 479, 679, 673, 635, 598, 685, 786, 657, 570, 606, 594, 559, 508, 612, 566, 484, 478, 608, 624, 598, 579, 623, 562, 512, 524, 518, 569, 552, 551, 526, 544, 567, 510, 524, 471, 579, 565, 553, 584, 538, 572, 529, 539, 566, 470, 557, 615, 508, 493, 528, 572, 573, 537, 549, 558, 506, 553, 501, 577, 575, 561, 510, 464, 524, 584, 499, 676, 657, 495, 472, 596, 545, 503, 524, 767, 749, 561, 489, 643, 711, 627, 660, 892, 910, 760, 485, 603, 874, 775, 835, 1066, 1080, 811, 576, 831, 962, 723, 2160, 2901, 2075, 931, 1161, 1877, 2087, 1280, 3353, 4527, 3230, 1380, 1672, 3137, 3549, 2243, 2375, 3209, 2456, 1212, 1445, 2637, 3113, 2222, 1296, 1476, 1303, 844, 866, 1255, 1519, 1354, 786, 860, 767, 604, 611, 658, 771, 747, 790, 893, 763, 614, 583, 654, 809, 744, 847, 1145, 997, 706, 712, 927, 1027, 773, 636, 772, 816, 694, 628, 803, 889, 741, 562, 643, 704, 711, 620, 551, 695, 674, 518, 563, 523, 588, 617, 561, 578, 583, 547, 600, 649, 668, 638, 592, 649, 637, 642, 867, 1006, 827, 652, 729, 746, 790, 738, 1312, 1538, 969, 703, 813, 934, 920, 929, 1173, 1501, 1183, 959, 803, 1478, 1626, 1147, 1097, 1601, 1405, 1032, 1004, 2344, 2455, 892, 1506, 1302, 938, 588, 1114, 1791, 1320, 4145, 2143, 4053, 3645, 1670, 963, 3733, 5608, 6821, 6789, 11696, 8456, 2826, 4415, 12263, 14009, 4225, 7884, 11434, 7112, 2190, 5774, 12070, 11893, 2530, 6880, 7012, 3191, 2120, 3644, 5647, 3979, 5234, 8905, 7803, 3427, 2634, 3778, 5961, 4634, 4992, 8760, 7804, 3417, 2535, 4218, 6645, 4811, 3149, 5276, 4815, 2416, 1974, 3124, 4459, 3176, 1924, 2856, 2647, 1708, 1858, 2248, 2448, 1869, 1249, 2138, 2216, 1427, 1446, 2157, 2059, 1183, 859, 1357, 1462, 1040, 964, 1396, 1352, 884, 705, 984, 1074, 832, 737, 1011, 992, 731, 738, 1092, 1117, 794, 726, 909, 933, 722, 715, 922, 861, 721, 702, 718, 780, 684, 652, 670, 550, 592, 653, 683, 700, 638, 697, 647, 582, 733, 677, 613, 657, 617, 659, 672, 633, 658, 629, 577, 557, 546, 703, 816, 797, 674, 578, 713, 888, 785, 713, 1038, 960, 676, 760, 868, 1101, 944, 861, 942, 806, 706, 877, 792, 841, 800, 724, 909, 826, 701, 680, 835, 776, 564, 553, 718, 779, 712, 591, 731, 689, 492, 540, 517, 699, 714, 568, 563, 535, 580, 629, 668, 857, 812, 581, 671, 772, 789, 666, 744, 762, 759, 631, 738, 748, 678, 894, 920, 700, 584, 627, 714, 674, 638, 727, 928, 799, 579, 669, 688, 698, 653, 632, 743, 872, 680, 598, 665, 828, 797, 565, 641, 770, 653, 609, 603, 663, 684, 610, 679, 639, 578, 635, 514, 555, 596, 687, 745, 613, 574, 592, 640, 527, 489, 646, 670, 664, 603, 568, 576, 546, 559, 555, 634, 693, 730, 699, 591, 546, 498, 561, 648, 763, 735, 666, 628, 554, 505, 499, 589, 666, 652, 618, 512, 548, 559, 526, 560, 545, 657, 637, 582, 607, 579, 567, 595, 610, 576, 513, 629, 621, 527, 576, 617, 625, 603, 588, 608, 485, 531, 574, 582, 619, 652, 575, 631, 553, 525, 633, 577, 624, 682, 579, 603, 633, 697, 704, 563, 542, 588, 584, 525, 531, 671, 630, 611, 564, 578, 640, 619, 556, 599, 574, 611, 570, 535, 530, 552, 522, 558, 671, 725, 684, 621, 599, 723, 631, 517, 630, 626, 548, 570, 594, 603, 574, 564, 619, 537, 566, 621, 624, 578, 572, 577, 575, 518, 553, 517, 504, 538, 559, 555, 653, 638, 678, 657, 556, 562, 614, 624, 637, 638, 589, 600, 582, 521, 548, 559, 659, 717, 585, 559, 572, 608, 639, 534, 726, 620, 695, 660, 542, 611, 727, 706, 731, 659, 703, 722, 644, 663, 653, 727, 637, 616, 691, 613, 598, 612, 581, 655, 609, 603, 579, 591, 580, 600, 613, 581, 491, 480, 579, 585, 571, 595, 575, 538, 594, 496, 618, 703, 617, 512, 551, 669, 647, 579, 571, 661, 657, 643, 580, 580, 588, 647, 626, 596, 561, 620, 599, 513, 475, 617, 692, 657, 521, 629, 675, 519, 650, 979, 921, 670, 571, 851, 1038, 707, 777, 1294, 1180, 639, 596, 879, 1077, 738, 674, 916, 769, 519, 517, 607, 781, 569, 654, 546, 654, 679, 509, 620, 618, 615, 640, 525, 686, 671, 581, 589, 577, 660, 476, 524, 604, 597, 508, 500, 613, 624, 532, 562, 629, 582, 506, 561, 588, 572, 464, 508, 475, 501, 478, 507, 549, 511, 456, 496, 535, 528, 434, 475, 570, 519, 545, 563, 622, 544, 419, 526, 656, 585, 549, 607, 626, 537, 421, 511, 600, 616, 556, 509, 449, 410, 449, 412, 403, 498, 414, 420, 406, 421, 420, 428, 471, 477, 373, 415, 405, 367, 401, 444, 492, 450, 491, 441, 472, 467, 507, 432, 473, 575]"
0.240690678358078,-0.040645532310009,-0.22757424414157867,-0.6645055413246155,-0.2084376960992813,-0.5995227098464966,-0.6208723187446594,-0.05640602111816406,0.9100914001464844,15.5,0.03400230407714844,0.25806427001953125,15.75,0.10424041748046875,0.32401084899902344,20.0,0.1833477020263672,-0.5198478698730469,15.0,0.1993694305419922,-0.5832195281982422,17.5,"[525, 652, 586, 691, 855, 693, 590, 647, 510, 674, 654, 681, 772, 748, 674, 601, 548, 559, 564, 596, 635, 660, 610, 558, 475, 478, 497, 496, 503, 551, 522, 462, 415, 432, 465, 472, 492, 465, 438, 448, 522, 520, 515, 518, 555, 569, 522, 540, 590, 548, 436, 510, 571, 562, 498, 514, 545, 509, 458, 534, 580, 512, 506, 533, 421, 478, 455, 453, 506, 459, 449, 450, 456, 498, 496, 427, 531, 525, 466, 461, 502, 498, 541, 583, 522, 499, 563, 581, 602, 533, 619, 677, 564, 488, 617, 657, 489, 485, 503, 479, 534, 523, 565, 579, 545, 507, 470, 530, 574, 514, 537, 560, 529, 535, 495, 555, 496, 481, 555, 511, 487, 539, 561, 520, 485, 551, 643, 542, 548, 509, 470, 532, 508, 548, 612, 537, 611, 521, 526, 567, 532, 587, 594, 598, 528, 532, 520, 564, 523, 594, 637, 521, 552, 538, 595, 553, 503, 597, 622, 564, 601, 623, 560, 532, 566, 584, 622, 641, 720, 665, 566, 535, 604, 605, 545, 645, 625, 541, 473, 508, 562, 490, 442, 595, 624, 522, 557, 691, 625, 481, 493, 609, 598, 570, 520, 543, 575, 616, 554, 549, 566, 608, 560, 509, 518, 601, 576, 529, 633, 591, 470, 460, 484, 448, 464, 548, 566, 500, 489, 552, 532, 436, 489, 550, 423, 479, 572, 560, 476, 456, 484, 481, 544, 532, 552, 537, 549, 614, 555, 547, 670, 460, 440, 596, 662, 560, 522, 638, 627, 570, 463, 540, 591, 604, 580, 566, 592, 605, 457, 417, 481, 509, 553, 543, 566, 603, 502, 372, 491, 496, 560, 581, 509, 528, 571, 512, 513, 490, 508, 520, 609, 562, 573, 446, 464, 566, 516, 532, 581, 577, 577, 505, 556, 574, 514, 569, 673, 506, 543, 675, 647, 516, 568, 708, 646, 468, 525, 622, 554, 526, 604, 687, 599, 624, 643, 627, 541, 597, 641, 651, 549, 663, 707, 681, 594, 529, 628, 671, 653, 831, 900, 663, 571, 675, 792, 818, 629, 1349, 1406, 761, 530, 953, 1213, 959, 669, 1354, 1407, 861, 579, 952, 1139, 902, 872, 1258, 1192, 761, 592, 1000, 1130, 862, 1167, 1579, 1409, 836, 849, 1282, 1245, 1022, 1401, 1825, 1345, 690, 838, 1306, 1284, 879, 1305, 1752, 1339, 730, 896, 1365, 1398, 843, 777, 1003, 919, 695, 660, 943, 1084, 815, 712, 690, 693, 712, 772, 892, 886, 736, 729, 973, 933, 803, 740, 797, 792, 646, 1334, 1705, 1793, 1311, 835, 1171, 1551, 1437, 1909, 1682, 2315, 2194, 1150, 1569, 3315, 3406, 1828, 1713, 2253, 1989, 1288, 1593, 3677, 3724, 1341, 1602, 1441, 1045, 990, 1260, 1732, 1492, 2543, 3754, 5215, 3486, 1593, 1844, 4557, 5093, 2884, 6426, 9082, 5601, 1889, 3685, 9059, 9097, 1276, 5012, 6307, 3453, 1225, 3329, 6755, 6046, 1396, 2083, 1662, 863, 1018, 1502, 1702, 1086, 1547, 2063, 2123, 1495, 896, 1527, 1949, 1591, 1075, 2048, 2223, 1367, 820, 1763, 2146, 1416, 861, 1674, 1835, 1039, 809, 1144, 1210, 986, 740, 1357, 1386, 806, 819, 815, 965, 1021, 839, 1051, 1081, 861, 844, 1223, 1257, 1034, 1102, 1681, 1689, 1087, 1233, 1752, 1742, 1165, 1157, 1685, 1612, 1097, 1239, 1652, 1579, 1091, 818, 976, 972, 740, 805, 1073, 1046, 797, 687, 750, 718, 693, 660, 762, 848, 752, 705, 802, 761, 621, 576, 745, 902, 739, 618, 751, 659, 485, 492, 611, 714, 616, 587, 725, 652, 496, 469, 617, 657, 491, 538, 679, 691, 625, 533, 604, 706, 522, 515, 699, 716, 606, 544, 494, 532, 558, 623, 711, 718, 649, 636, 609, 531, 575, 642, 696, 567, 654, 751, 693, 595, 596, 510, 645, 728, 659, 582, 695, 700, 573, 567, 583, 633, 636, 628, 620, 576, 635, 682, 649, 636, 611, 584, 554, 606, 691, 687, 711, 712, 628, 595, 701, 718, 634, 735, 736, 713, 681, 801, 785, 705, 600, 699, 767, 781, 696, 656, 716, 772, 606, 661, 783, 860, 749, 655, 699, 805, 648, 593, 611, 657, 605, 589, 638, 637, 634, 655, 651, 746, 699, 608, 690, 791, 754, 597, 568, 698, 609, 484, 624, 729, 708, 589, 654, 707, 612, 599, 691, 672, 673, 572, 631, 635, 621, 587, 720, 768, 681, 636, 620, 576, 649, 589, 640, 713, 617, 498, 638, 608, 560, 509, 544, 710, 558, 595, 584, 644, 656, 594, 670, 676, 606, 693, 747, 721, 626, 692, 753, 659, 654, 581, 636, 601, 536, 605, 618, 515, 547, 589, 534, 623, 645, 567, 579, 554, 557, 513, 638, 766, 690, 486, 581, 643, 594, 569, 717, 691, 617, 594, 605, 571, 526, 723, 734, 797, 675, 598, 776, 745, 654, 810, 818, 853, 712, 757, 1072, 930, 637, 802, 788, 790, 828, 832, 1006, 912, 683, 706, 663, 634, 652, 641, 665, 632, 620, 550, 524, 619, 714, 632, 523, 610, 651, 664, 551, 693, 699, 565, 587, 631, 675, 636, 613, 669, 713, 613, 616, 599, 633, 649, 554, 598, 596, 515, 615, 610, 635, 764, 750, 609, 537, 579, 683, 613, 629, 662, 638, 561, 549, 578, 615, 562, 604, 622, 598, 600, 639, 623, 589, 622, 630, 659, 605, 599, 658, 576, 566, 626, 632, 670, 518, 581, 717, 617, 472, 486, 635, 642, 557, 771, 763, 529, 494, 609, 713, 582, 566, 732, 728, 485, 643, 758, 690, 575, 566, 703, 679, 557, 661, 663, 576, 722, 602, 592, 627, 631, 687, 639, 663, 714, 748, 651, 616, 634, 636, 615, 679, 844, 1177, 1033, 698, 675, 748, 1003, 776, 730, 1138, 1074, 808, 722, 909, 1160, 1023, 644, 704, 792, 731, 722, 741, 729, 746, 659, 581, 558, 571, 599, 709, 637, 643, 622, 565, 617, 663, 593, 561, 632, 673, 556, 667, 633, 496, 579, 601, 556, 579, 478, 583, 555, 508, 452, 527, 616, 546, 480, 540, 484, 472, 504, 493, 535, 491, 541, 570, 629, 562, 468, 527, 520, 496, 488, 579, 594, 546, 477, 529, 552, 466, 442, 530, 459, 374, 393, 459, 513, 429, 502, 526, 432, 455, 503, 460, 494, 465, 492, 472, 418, 443, 509, 514, 489, 383, 453, 453, 421, 436, 425, 460, 464, 426, 394, 449, 450, 445, 416, 482, 505, 387]"
0.23550687730312347,-0.11016304790973663,-0.21384456753730774,-0.4964066445827484,-0.19181972742080688,-0.4036233425140381,-0.3216228783130646,-0.13052010536193848,0.4511833190917969,18.25,-0.002489328384399414,0.25849342346191406,22.0,0.015964269638061523,0.39381980895996094,16.25,0.17475104331970215,0.0,18.5,0.21165823936462402,-0.6714820861816406,17.25,"[806, 717, 725, 760, 573, 755, 723, 716, 725, 662, 708, 727, 684, 846, 778, 707, 578, 665, 586, 549, 575, 627, 602, 521, 485, 543, 520, 467, 463, 513, 499, 475, 509, 482, 383, 440, 495, 469, 439, 483, 623, 544, 468, 531, 532, 478, 511, 596, 481, 491, 423, 471, 446, 391, 451, 453, 466, 414, 408, 445, 443, 411, 432, 486, 545, 530, 509, 485, 544, 639, 605, 568, 541, 564, 510, 531, 584, 602, 604, 568, 524, 515, 485, 556, 539, 524, 595, 559, 600, 539, 568, 582, 595, 602, 594, 659, 525, 544, 573, 536, 553, 556, 531, 533, 469, 575, 572, 451, 436, 453, 469, 483, 489, 646, 553, 481, 537, 500, 522, 510, 660, 691, 555, 496, 649, 644, 558, 486, 636, 622, 513, 505, 557, 614, 524, 541, 586, 539, 561, 583, 526, 532, 567, 581, 526, 528, 621, 617, 531, 596, 658, 629, 523, 552, 520, 570, 604, 613, 566, 534, 522, 474, 544, 519, 548, 536, 590, 636, 547, 497, 615, 594, 568, 493, 508, 629, 553, 551, 548, 572, 591, 584, 484, 511, 601, 580, 512, 583, 681, 653, 597, 542, 580, 613, 459, 471, 714, 683, 491, 556, 468, 486, 517, 550, 570, 534, 471, 470, 539, 590, 596, 566, 524, 506, 544, 526, 558, 576, 583, 532, 506, 500, 574, 574, 513, 538, 481, 501, 502, 471, 460, 440, 534, 607, 593, 525, 451, 520, 522, 487, 466, 478, 510, 496, 417, 432, 472, 440, 595, 535, 541, 546, 591, 515, 442, 582, 506, 498, 536, 559, 532, 451, 541, 601, 550, 587, 523, 500, 565, 519, 537, 562, 579, 661, 600, 502, 549, 547, 526, 496, 583, 636, 635, 577, 587, 508, 543, 558, 521, 549, 560, 556, 598, 569, 504, 556, 569, 588, 577, 591, 642, 581, 482, 552, 701, 650, 491, 560, 643, 526, 451, 556, 688, 605, 470, 578, 581, 513, 520, 590, 513, 474, 433, 557, 529, 476, 519, 537, 551, 520, 475, 540, 526, 499, 542, 551, 534, 750, 752, 600, 573, 591, 657, 582, 673, 1150, 1071, 694, 530, 729, 955, 679, 751, 1245, 1179, 820, 664, 873, 1076, 750, 709, 918, 903, 740, 718, 810, 804, 709, 607, 707, 686, 615, 735, 763, 657, 591, 708, 772, 673, 653, 689, 642, 525, 580, 651, 811, 721, 600, 701, 695, 618, 593, 698, 831, 696, 588, 688, 686, 610, 550, 768, 1249, 1124, 617, 647, 785, 853, 615, 872, 1692, 1625, 776, 739, 970, 1197, 842, 1056, 1972, 1935, 1099, 833, 1001, 1375, 998, 1308, 2466, 2440, 1386, 1035, 1329, 1753, 1381, 1377, 2453, 2503, 1361, 1100, 1273, 1633, 1465, 3252, 3145, 4321, 3135, 1782, 1275, 3933, 5167, 4202, 4547, 6871, 4687, 2304, 1873, 6834, 8189, 2116, 3886, 4312, 2449, 2312, 1876, 3866, 4472, 2362, 4481, 6092, 3338, 2289, 3131, 5884, 6087, 2004, 4172, 5398, 3055, 1183, 2676, 5357, 5157, 1276, 2886, 2907, 1591, 882, 1673, 2865, 2205, 1050, 1676, 1506, 969, 815, 1033, 1360, 990, 844, 1075, 994, 753, 746, 774, 803, 709, 723, 1004, 947, 646, 663, 849, 770, 664, 557, 760, 775, 642, 633, 828, 748, 603, 587, 779, 824, 786, 901, 1130, 932, 591, 901, 977, 1042, 905, 1213, 1678, 1473, 894, 939, 1008, 935, 868, 1027, 1554, 1590, 1037, 691, 793, 820, 705, 653, 906, 1044, 794, 639, 710, 732, 656, 607, 641, 700, 647, 651, 667, 607, 679, 695, 604, 526, 509, 611, 744, 661, 622, 624, 615, 643, 575, 569, 627, 609, 588, 590, 569, 593, 615, 662, 743, 725, 645, 662, 742, 763, 651, 693, 733, 751, 629, 680, 763, 619, 658, 636, 667, 640, 551, 613, 659, 570, 636, 627, 593, 571, 572, 631, 562, 545, 607, 568, 546, 663, 708, 587, 536, 637, 656, 565, 732, 846, 727, 651, 702, 787, 759, 564, 615, 711, 678, 683, 703, 744, 656, 580, 633, 721, 577, 594, 643, 714, 666, 520, 540, 736, 729, 668, 586, 717, 730, 532, 625, 755, 686, 574, 510, 624, 634, 589, 709, 709, 610, 593, 543, 679, 613, 624, 748, 624, 567, 607, 582, 621, 596, 668, 719, 620, 564, 591, 624, 604, 619, 594, 600, 648, 592, 616, 630, 636, 637, 617, 556, 546, 624, 621, 634, 639, 685, 668, 616, 515, 548, 614, 603, 620, 702, 680, 676, 714, 656, 606, 643, 665, 716, 649, 734, 647, 601, 625, 668, 626, 624, 607, 646, 598, 501, 672, 664, 618, 650, 554, 577, 579, 537, 607, 584, 618, 604, 592, 511, 668, 604, 596, 676, 640, 679, 452, 518, 651, 603, 517, 550, 668, 625, 557, 537, 515, 588, 619, 646, 609, 518, 558, 508, 533, 679, 653, 583, 592, 520, 587, 568, 597, 645, 635, 549, 506, 506, 555, 580, 608, 655, 716, 675, 593, 532, 523, 545, 627, 671, 642, 655, 592, 503, 548, 543, 593, 676, 620, 591, 513, 466, 542, 604, 613, 604, 642, 712, 649, 545, 498, 623, 620, 569, 630, 666, 705, 577, 483, 545, 567, 538, 521, 535, 599, 546, 593, 583, 577, 585, 601, 558, 561, 552, 701, 619, 528, 608, 637, 598, 600, 610, 638, 588, 568, 575, 632, 685, 565, 592, 650, 732, 659, 556, 682, 678, 629, 617, 623, 735, 664, 545, 618, 586, 636, 604, 647, 728, 727, 674, 687, 634, 626, 693, 546, 607, 700, 781, 637, 608, 650, 613, 552, 581, 632, 635, 606, 498, 533, 545, 538, 505, 569, 566, 528, 478, 497, 547, 610, 616, 576, 580, 544, 523, 570, 559, 587, 782, 702, 556, 536, 605, 634, 522, 531, 638, 556, 501, 608, 526, 514, 489, 548, 627, 573, 527, 656, 627, 659, 574, 623, 612, 585, 566, 599, 624, 600, 610, 478, 509, 554, 463, 482, 523, 499, 492, 511, 505, 554, 505, 553, 497, 494, 530, 475, 511, 532, 538, 494, 476, 505, 520, 453, 519, 517, 461, 475, 485, 517, 495, 358, 443, 512, 477, 362, 405, 512, 453, 436, 490, 479, 451, 483, 480, 456, 459, 407, 474, 453, 452, 457, 400, 418, 412, 525, 530, 481, 555, 490, 385, 334, 393, 491, 507, 515, 559, 452, 439, 550, 477, 375, 451, 570, 481, 343, 439, 503, 439]"
0.24927210807800293,-0.04574548453092575,0.07812227308750153,-0.3256760537624359,0.09044146537780762,0.1951470971107483,-0.07053698599338531,-0.035199522972106934,0.9245395660400391,16.25,0.028458237648010254,-0.6521701812744141,22.25,0.09125769138336182,-0.5232810974121094,21.0,0.1125723123550415,0.4581928253173828,21.25,0.12616217136383057,0.32601356506347656,22.5,"[498, 562, 608, 596, 553, 594, 608, 562, 570, 598, 646, 574, 647, 737, 658, 515, 558, 586, 542, 573, 632, 671, 600, 511, 552, 597, 563, 546, 499, 468, 487, 458, 496, 609, 518, 441, 507, 512, 482, 421, 517, 591, 543, 559, 590, 623, 630, 513, 598, 669, 548, 511, 506, 536, 475, 437, 575, 631, 483, 458, 529, 591, 525, 409, 529, 515, 496, 484, 491, 585, 610, 540, 468, 462, 459, 395, 431, 539, 564, 441, 497, 530, 542, 496, 439, 551, 543, 519, 509, 527, 539, 432, 453, 535, 463, 446, 518, 526, 504, 410, 433, 535, 535, 494, 526, 594, 531, 489, 494, 606, 634, 556, 506, 543, 547, 503, 537, 489, 484, 528, 568, 472, 531, 611, 596, 532, 552, 660, 521, 509, 529, 516, 624, 640, 526, 534, 468, 494, 583, 605, 531, 534, 545, 487, 642, 574, 547, 614, 645, 616, 493, 530, 603, 599, 516, 582, 570, 630, 504, 498, 588, 612, 499, 547, 587, 642, 558, 503, 622, 534, 472, 506, 562, 542, 500, 559, 509, 568, 491, 487, 528, 567, 592, 515, 522, 598, 570, 567, 502, 552, 581, 532, 578, 547, 528, 562, 481, 481, 466, 543, 547, 569, 515, 516, 533, 577, 594, 542, 548, 504, 546, 571, 609, 578, 528, 536, 565, 590, 538, 530, 541, 547, 526, 498, 479, 540, 543, 581, 506, 466, 491, 462, 447, 427, 478, 584, 593, 447, 483, 508, 472, 521, 519, 526, 500, 444, 502, 543, 510, 517, 591, 536, 467, 548, 559, 536, 445, 460, 609, 617, 496, 529, 571, 493, 560, 472, 550, 654, 625, 574, 636, 636, 600, 559, 590, 621, 672, 549, 517, 644, 515, 543, 609, 620, 566, 526, 519, 558, 499, 562, 555, 646, 602, 544, 596, 534, 487, 530, 540, 618, 597, 594, 626, 581, 602, 605, 568, 560, 639, 671, 642, 600, 602, 531, 585, 545, 550, 610, 534, 582, 540, 457, 560, 548, 521, 541, 527, 588, 524, 502, 566, 639, 639, 608, 647, 658, 646, 652, 612, 655, 698, 678, 619, 639, 612, 739, 745, 599, 617, 691, 652, 612, 590, 578, 594, 571, 555, 643, 602, 555, 582, 538, 564, 612, 583, 592, 570, 559, 578, 578, 677, 671, 557, 541, 636, 660, 567, 523, 554, 581, 587, 610, 588, 592, 530, 527, 507, 490, 570, 573, 532, 544, 538, 537, 662, 629, 534, 558, 622, 644, 648, 790, 729, 631, 568, 661, 655, 623, 853, 1213, 911, 543, 599, 679, 809, 595, 898, 1689, 1631, 926, 728, 880, 1281, 1059, 1029, 2808, 2864, 1479, 953, 1287, 2192, 1674, 1274, 2669, 2401, 1119, 852, 1172, 1954, 1241, 2303, 3380, 3121, 1931, 1232, 1879, 3198, 2687, 3609, 7462, 8411, 4693, 1647, 4390, 8274, 7308, 2568, 7032, 8154, 4353, 1232, 4377, 8159, 7041, 855, 3411, 3902, 1986, 805, 2549, 4290, 3413, 1043, 1561, 1216, 670, 829, 1363, 1450, 812, 969, 1325, 1256, 836, 646, 879, 897, 787, 768, 1005, 968, 728, 756, 1171, 1189, 802, 788, 1113, 1244, 906, 990, 1575, 1515, 932, 862, 1050, 1052, 845, 976, 1451, 1381, 876, 765, 772, 717, 671, 695, 766, 729, 618, 613, 687, 624, 575, 573, 544, 564, 477, 649, 641, 559, 620, 645, 500, 494, 592, 620, 657, 558, 518, 605, 550, 515, 571, 680, 710, 569, 538, 609, 551, 499, 546, 628, 666, 538, 571, 631, 595, 550, 575, 545, 488, 520, 567, 632, 600, 520, 586, 523, 572, 532, 504, 627, 611, 522, 537, 619, 555, 568, 513, 615, 647, 577, 628, 515, 512, 626, 582, 523, 693, 680, 593, 500, 519, 670, 629, 586, 691, 764, 621, 670, 581, 612, 628, 626, 581, 650, 755, 689, 634, 561, 554, 581, 604, 556, 647, 721, 710, 639, 616, 639, 651, 650, 663, 643, 609, 544, 691, 713, 638, 624, 610, 696, 736, 670, 712, 746, 646, 458, 529, 658, 710, 654, 653, 653, 645, 599, 670, 595, 730, 724, 670, 679, 614, 694, 743, 505, 661, 738, 632, 555, 685, 671, 592, 639, 694, 751, 674, 590, 641, 629, 597, 641, 641, 625, 576, 582, 627, 586, 624, 670, 675, 631, 650, 633, 677, 621, 573, 587, 640, 608, 643, 600, 608, 581, 476, 656, 675, 539, 574, 562, 565, 534, 594, 664, 559, 479, 665, 623, 513, 553, 644, 607, 674, 633, 675, 583, 606, 670, 593, 557, 718, 624, 509, 659, 764, 721, 511, 495, 616, 700, 514, 596, 731, 694, 546, 537, 639, 620, 426, 583, 699, 632, 540, 592, 701, 586, 559, 594, 669, 685, 597, 666, 707, 553, 544, 519, 606, 675, 596, 716, 635, 647, 552, 510, 586, 713, 753, 635, 588, 564, 580, 538, 522, 622, 718, 628, 643, 678, 681, 582, 687, 721, 642, 599, 548, 624, 541, 480, 628, 589, 531, 532, 563, 617, 538, 440, 523, 537, 519, 550, 631, 616, 625, 483, 478, 578, 544, 604, 689, 595, 549, 477, 621, 676, 578, 615, 593, 620, 634, 530, 559, 646, 591, 612, 611, 636, 754, 581, 571, 684, 611, 594, 698, 680, 696, 598, 580, 704, 596, 588, 671, 630, 645, 594, 583, 675, 590, 603, 604, 475, 565, 543, 604, 616, 520, 543, 560, 513, 556, 600, 578, 563, 526, 593, 452, 562, 594, 619, 539, 601, 755, 666, 549, 561, 649, 603, 558, 630, 736, 718, 637, 633, 653, 617, 527, 456, 628, 663, 581, 560, 592, 604, 528, 527, 608, 531, 577, 551, 489, 563, 479, 532, 582, 539, 579, 499, 522, 595, 562, 524, 548, 521, 515, 492, 530, 566, 559, 543, 521, 613, 562, 617, 612, 583, 545, 562, 630, 616, 520, 607, 564, 484, 526, 536, 668, 650, 571, 597, 533, 525, 603, 619, 684, 457, 530, 566, 512, 505, 497, 535, 511, 481, 445, 432, 496, 533, 471, 565, 527, 505, 468, 418, 467, 563, 522, 443, 454, 462, 498, 461, 472, 492, 491, 423, 445, 438, 495, 491, 483, 491, 477, 457, 417, 423, 454, 400, 410, 460, 432, 389, 358, 355, 361, 372, 378, 346, 439, 400, 345, 389, 437, 478, 414, 404, 433, 390, 401, 418, 455, 520, 465, 403, 433, 403, 438, 435, 406, 399, 403, 419, 390, 387, 398]"
0.331244558095932,0.30333492159843445,-0.03889076039195061,0.14961913228034973,0.3810672163963318,0.04571709781885147,0.31340664625167847,-1.4616354703903198,-1.4246463775634766,17.0,-1.4616354703903198,-1.3631343841552734,18.75,0.09261524677276611,0.2597808837890625,18.5,0.10634815692901611,-0.06537437438964844,17.75,0.12623226642608643,-0.7774829864501953,16.25,"[429, 556, 569, 555, 671, 561, 571, 552, 503, 576, 548, 668, 721, 580, 568, 618, 549, 549, 501, 499, 558, 584, 526, 529, 438, 475, 545, 489, 468, 476, 448, 493, 438, 523, 566, 477, 404, 459, 529, 535, 467, 473, 599, 562, 411, 430, 512, 603, 495, 485, 473, 465, 467, 494, 554, 552, 491, 515, 528, 511, 507, 487, 456, 463, 562, 594, 549, 493, 518, 540, 511, 553, 481, 580, 590, 491, 569, 594, 544, 536, 492, 506, 549, 506, 553, 506, 510, 561, 515, 549, 582, 573, 531, 492, 511, 534, 561, 618, 560, 512, 518, 540, 560, 512, 584, 568, 445, 431, 526, 550, 485, 491, 591, 575, 443, 508, 511, 515, 484, 535, 594, 592, 545, 531, 534, 560, 548, 553, 524, 461, 565, 548, 439, 486, 575, 624, 510, 507, 571, 600, 512, 468, 540, 572, 555, 503, 379, 494, 549, 481, 451, 511, 598, 575, 484, 498, 575, 515, 462, 503, 559, 561, 513, 509, 561, 602, 527, 558, 526, 610, 578, 523, 527, 578, 588, 485, 529, 600, 574, 527, 570, 602, 467, 500, 463, 592, 585, 556, 645, 582, 466, 470, 503, 625, 604, 524, 577, 583, 501, 484, 584, 454, 489, 543, 575, 521, 440, 534, 483, 479, 492, 470, 559, 537, 398, 478, 564, 557, 563, 507, 490, 530, 467, 490, 541, 519, 557, 505, 492, 560, 456, 494, 595, 526, 502, 523, 547, 514, 464, 543, 559, 513, 562, 572, 499, 589, 580, 531, 590, 473, 484, 547, 501, 499, 511, 549, 485, 456, 507, 587, 509, 469, 556, 564, 569, 540, 503, 607, 683, 597, 631, 620, 436, 581, 521, 501, 615, 585, 565, 488, 508, 593, 494, 506, 591, 523, 560, 503, 568, 559, 510, 507, 501, 510, 571, 590, 502, 518, 505, 482, 515, 545, 540, 544, 565, 600, 600, 498, 507, 612, 558, 548, 466, 495, 539, 405, 467, 549, 546, 505, 557, 537, 504, 496, 483, 564, 566, 596, 660, 678, 615, 590, 579, 631, 685, 633, 670, 616, 658, 653, 617, 640, 674, 640, 616, 545, 608, 660, 592, 496, 535, 633, 531, 525, 559, 620, 529, 505, 538, 500, 558, 515, 620, 606, 640, 670, 593, 567, 560, 490, 533, 549, 554, 516, 560, 696, 560, 585, 574, 590, 569, 550, 583, 633, 563, 541, 607, 557, 516, 518, 507, 558, 659, 596, 542, 640, 544, 457, 476, 590, 1298, 2086, 1724, 735, 722, 843, 1174, 747, 2637, 4829, 4048, 1279, 1299, 1853, 2553, 1242, 2388, 3926, 3240, 1205, 1056, 1717, 2080, 1223, 1005, 1271, 1194, 939, 651, 976, 1156, 1127, 693, 1600, 1743, 1040, 717, 821, 1418, 1282, 755, 2509, 3249, 1859, 728, 1275, 2943, 2876, 1379, 3037, 4606, 2934, 968, 1735, 4609, 4788, 1542, 2335, 3786, 2492, 935, 1592, 4119, 4379, 813, 1231, 1680, 1034, 565, 1010, 1810, 1830, 599, 692, 666, 578, 475, 628, 687, 562, 589, 654, 535, 608, 657, 626, 589, 513, 723, 1118, 992, 580, 863, 960, 731, 564, 739, 1054, 1115, 725, 754, 968, 844, 633, 573, 687, 703, 655, 562, 578, 685, 637, 645, 641, 578, 531, 562, 531, 521, 569, 635, 528, 447, 589, 610, 502, 405, 494, 611, 620, 622, 544, 557, 578, 525, 524, 642, 760, 656, 596, 564, 580, 634, 525, 502, 561, 619, 645, 520, 509, 604, 591, 511, 529, 671, 604, 526, 500, 563, 604, 628, 618, 636, 617, 542, 536, 628, 623, 595, 658, 606, 624, 645, 587, 636, 593, 648, 577, 513, 543, 667, 590, 537, 598, 642, 504, 517, 567, 616, 515, 502, 653, 727, 612, 594, 665, 697, 580, 584, 657, 712, 641, 498, 572, 629, 591, 563, 601, 588, 631, 608, 662, 610, 580, 621, 563, 641, 686, 638, 618, 709, 708, 637, 607, 578, 599, 616, 548, 680, 749, 633, 552, 614, 658, 691, 533, 566, 698, 617, 546, 621, 546, 508, 526, 522, 512, 541, 568, 657, 514, 553, 665, 602, 467, 598, 692, 631, 588, 571, 614, 603, 554, 595, 625, 603, 604, 543, 536, 603, 564, 608, 602, 641, 633, 612, 570, 573, 541, 573, 692, 670, 631, 621, 602, 559, 552, 608, 626, 696, 639, 560, 579, 603, 573, 575, 619, 468, 581, 640, 605, 519, 523, 623, 566, 516, 534, 562, 571, 598, 685, 657, 544, 564, 613, 550, 519, 605, 656, 656, 588, 661, 685, 498, 485, 625, 685, 597, 550, 621, 698, 635, 482, 520, 596, 545, 535, 623, 578, 610, 548, 435, 507, 472, 533, 639, 564, 538, 559, 533, 559, 567, 636, 519, 542, 588, 616, 578, 535, 625, 629, 512, 561, 602, 648, 586, 588, 669, 578, 465, 538, 559, 576, 533, 579, 572, 515, 479, 503, 519, 545, 552, 587, 579, 516, 496, 522, 520, 514, 446, 495, 485, 441, 574, 467, 569, 594, 609, 595, 539, 562, 538, 533, 626, 586, 591, 662, 613, 550, 486, 493, 467, 490, 495, 578, 613, 484, 526, 494, 487, 560, 501, 516, 612, 659, 654, 588, 582, 642, 542, 495, 575, 629, 599, 563, 556, 633, 530, 442, 551, 585, 587, 606, 517, 562, 603, 543, 606, 579, 601, 595, 585, 592, 636, 650, 691, 596, 527, 477, 502, 548, 544, 633, 675, 618, 456, 449, 556, 519, 453, 546, 645, 624, 461, 567, 673, 621, 570, 675, 739, 652, 538, 550, 673, 690, 603, 566, 609, 627, 588, 653, 619, 530, 445, 525, 518, 510, 630, 614, 578, 556, 541, 576, 517, 530, 683, 681, 495, 520, 609, 592, 546, 481, 698, 624, 463, 538, 581, 576, 557, 615, 577, 569, 499, 560, 659, 517, 512, 586, 449, 476, 557, 543, 496, 512, 575, 538, 529, 497, 518, 541, 496, 516, 532, 537, 512, 489, 480, 525, 567, 581, 512, 492, 438, 471, 501, 545, 525, 519, 428, 440, 349, 387, 386, 466, 454, 423, 397, 396, 393, 393, 348, 463, 461, 381, 390, 356, 419, 437, 387, 375, 507, 509, 466, 444, 410, 470, 452, 420, 444, 442, 542, 494, 370, 416, 411, 433, 457, 468, 526, 478, 378, 424, 449, 419, 420, 431, 415, 431, 471, 426, 395, 467, 413, 376, 392, 426, 388, 374, 366, 384, 414, 400, 362, 386]"
0.3787119388580322,-0.19728608429431915,0.12522603571414948,-0.16461509466171265,-0.26595383882522583,0.06095467507839203,-0.11793158203363419,-0.03145146369934082,0.3916740417480469,22.25,0.031204938888549805,0.3928184509277344,23.0,0.060387372970581055,0.5284309387207031,18.0,0.22933077812194824,-0.26221275329589844,22.75,0.2440650463104248,-0.3261566162109375,21.75,"[554, 641, 625, 526, 509, 525, 624, 641, 615, 583, 556, 505, 541, 603, 608, 650, 536, 497, 494, 551, 566, 602, 589, 569, 596, 530, 498, 560, 572, 576, 578, 578, 488, 467, 457, 494, 504, 520, 539, 481, 516, 478, 435, 538, 522, 516, 598, 523, 572, 540, 448, 545, 591, 513, 551, 540, 657, 521, 457, 535, 578, 550, 448, 577, 539, 526, 498, 482, 567, 590, 494, 506, 466, 502, 579, 493, 469, 550, 575, 533, 455, 536, 588, 436, 466, 608, 518, 495, 455, 521, 531, 424, 481, 605, 547, 475, 532, 516, 492, 490, 547, 526, 539, 571, 545, 602, 485, 468, 552, 508, 513, 502, 513, 576, 465, 446, 467, 465, 486, 445, 505, 490, 502, 487, 465, 562, 512, 482, 472, 521, 613, 523, 395, 470, 572, 543, 579, 566, 640, 577, 460, 519, 574, 600, 499, 475, 494, 579, 509, 459, 506, 529, 599, 582, 480, 554, 620, 561, 473, 463, 583, 593, 522, 614, 570, 526, 512, 510, 525, 581, 596, 627, 567, 582, 606, 555, 600, 597, 703, 654, 622, 667, 666, 691, 521, 482, 566, 605, 546, 527, 536, 571, 530, 569, 554, 524, 523, 503, 555, 558, 555, 644, 605, 516, 585, 597, 467, 438, 530, 629, 567, 503, 674, 638, 477, 446, 486, 565, 560, 585, 553, 497, 557, 555, 561, 587, 621, 635, 547, 587, 604, 596, 597, 641, 640, 653, 667, 604, 506, 557, 495, 571, 602, 607, 620, 577, 589, 546, 518, 510, 473, 483, 506, 520, 505, 536, 530, 559, 507, 400, 488, 513, 466, 508, 513, 559, 558, 433, 490, 588, 562, 511, 490, 533, 450, 434, 522, 567, 530, 444, 581, 558, 518, 557, 592, 660, 659, 589, 469, 410, 399, 523, 555, 528, 563, 548, 521, 516, 442, 447, 589, 547, 487, 498, 413, 462, 520, 524, 541, 534, 616, 596, 543, 531, 579, 629, 667, 603, 540, 546, 616, 652, 555, 480, 673, 700, 557, 566, 689, 609, 559, 543, 613, 623, 559, 643, 656, 625, 570, 627, 570, 563, 575, 492, 600, 618, 574, 601, 561, 602, 593, 491, 572, 697, 701, 590, 551, 645, 582, 517, 599, 714, 680, 643, 635, 609, 617, 543, 433, 552, 625, 631, 581, 538, 658, 580, 616, 584, 497, 533, 564, 528, 538, 538, 561, 545, 578, 575, 513, 513, 533, 551, 705, 796, 710, 578, 616, 571, 533, 548, 1600, 3536, 3254, 1187, 1163, 1480, 1696, 1025, 2403, 6455, 6518, 2558, 1767, 2774, 2937, 1972, 1526, 5043, 5509, 2402, 1388, 2273, 2291, 2022, 1045, 2069, 2282, 1214, 940, 1011, 1150, 1407, 886, 1481, 1627, 954, 674, 771, 1141, 1211, 1347, 2186, 3488, 2595, 1168, 1309, 2711, 3014, 3005, 4894, 8149, 5578, 1990, 2605, 7501, 8286, 2175, 6163, 8960, 5502, 1445, 3471, 8674, 8696, 773, 3834, 4974, 2841, 778, 2172, 4656, 4312, 730, 1666, 1849, 1017, 695, 978, 1646, 1453, 562, 534, 653, 596, 461, 507, 581, 694, 900, 875, 743, 745, 622, 644, 722, 700, 829, 928, 783, 752, 761, 770, 786, 703, 694, 618, 672, 670, 593, 629, 581, 684, 566, 534, 612, 572, 472, 574, 481, 565, 663, 655, 593, 546, 563, 552, 503, 531, 657, 674, 704, 594, 562, 602, 644, 682, 631, 634, 706, 644, 586, 622, 649, 662, 605, 525, 563, 616, 614, 602, 564, 582, 573, 605, 628, 528, 622, 603, 577, 587, 655, 778, 809, 666, 509, 619, 689, 611, 722, 901, 923, 733, 605, 700, 841, 739, 542, 676, 782, 681, 612, 680, 679, 683, 673, 708, 771, 762, 702, 748, 667, 679, 812, 801, 677, 620, 709, 756, 650, 635, 624, 780, 749, 552, 616, 644, 559, 558, 542, 611, 672, 525, 545, 631, 495, 490, 513, 565, 575, 510, 487, 520, 474, 497, 605, 543, 590, 560, 600, 558, 448, 603, 615, 661, 644, 554, 591, 674, 623, 653, 634, 592, 625, 583, 638, 658, 632, 622, 668, 610, 642, 626, 563, 709, 644, 626, 623, 510, 622, 679, 616, 628, 511, 625, 627, 596, 616, 616, 645, 586, 495, 570, 597, 543, 614, 569, 563, 562, 527, 575, 640, 603, 597, 621, 565, 615, 548, 542, 636, 664, 657, 616, 536, 537, 575, 618, 600, 584, 672, 614, 510, 576, 552, 520, 575, 616, 624, 555, 536, 615, 630, 544, 619, 585, 606, 587, 554, 573, 662, 696, 638, 481, 569, 650, 578, 530, 654, 747, 582, 605, 626, 602, 544, 591, 644, 650, 613, 583, 610, 594, 592, 564, 704, 703, 543, 668, 644, 500, 614, 668, 588, 484, 531, 583, 569, 550, 532, 544, 569, 533, 662, 617, 637, 634, 585, 655, 590, 603, 567, 592, 612, 534, 525, 602, 562, 528, 588, 488, 482, 547, 618, 582, 487, 612, 599, 602, 541, 566, 678, 617, 507, 583, 691, 622, 567, 494, 592, 606, 545, 632, 550, 691, 689, 470, 473, 595, 585, 548, 517, 673, 672, 582, 613, 619, 492, 449, 604, 691, 679, 574, 593, 588, 530, 499, 566, 633, 642, 492, 539, 546, 531, 572, 545, 538, 541, 568, 562, 599, 519, 528, 542, 519, 530, 626, 626, 586, 574, 484, 572, 584, 532, 558, 626, 575, 556, 492, 550, 600, 606, 620, 588, 647, 656, 516, 615, 623, 587, 596, 508, 546, 657, 665, 671, 690, 725, 666, 510, 615, 678, 631, 682, 731, 746, 658, 554, 720, 746, 701, 600, 676, 650, 548, 611, 644, 694, 632, 575, 711, 626, 548, 680, 620, 653, 579, 593, 644, 628, 627, 566, 592, 650, 606, 597, 588, 592, 593, 513, 497, 527, 574, 586, 602, 606, 610, 608, 530, 579, 628, 697, 610, 500, 571, 659, 659, 577, 637, 606, 626, 705, 620, 589, 576, 595, 590, 572, 624, 730, 593, 602, 636, 605, 585, 542, 526, 629, 556, 517, 517, 583, 658, 500, 479, 486, 459, 470, 462, 480, 540, 397, 507, 469, 382, 436, 475, 467, 409, 396, 428, 434, 375, 420, 434, 497, 459, 441, 457, 490, 432, 416, 456, 460, 463, 405, 436, 454, 379, 363, 385, 454, 455, 425, 463, 466, 408, 408, 385, 446, 457, 337, 413, 452, 410, 396, 408, 442, 359, 432, 415, 360, 433, 429, 394, 457, 461]"
0.4408435821533203,0.09373153746128082,0.07417045533657074,0.00811012089252472,0.266792893409729,0.14825066924095154,0.1198895201086998,-0.3974415063858032,0.7266998291015625,16.0,-0.354526162147522,0.7318496704101562,16.75,0.04430043697357178,0.4550457000732422,28.25,0.08936154842376709,0.5222797393798828,25.75,0.16618001461029053,0.39496421813964844,18.75,"[536, 585, 539, 570, 647, 568, 543, 585, 569, 603, 613, 644, 656, 627, 627, 614, 592, 588, 588, 633, 614, 569, 531, 516, 649, 534, 490, 530, 550, 527, 520, 578, 531, 571, 498, 491, 454, 457, 512, 501, 535, 523, 546, 552, 433, 446, 502, 547, 452, 430, 449, 400, 435, 446, 445, 439, 422, 509, 513, 449, 528, 585, 577, 451, 477, 498, 563, 582, 591, 530, 522, 517, 530, 513, 574, 628, 639, 565, 576, 616, 561, 516, 574, 579, 526, 541, 589, 620, 622, 559, 562, 592, 553, 603, 597, 509, 610, 506, 558, 631, 632, 580, 515, 555, 642, 538, 561, 596, 600, 556, 516, 619, 589, 665, 607, 515, 524, 533, 597, 614, 491, 575, 585, 488, 540, 586, 614, 573, 448, 572, 584, 508, 503, 498, 544, 479, 568, 608, 607, 513, 570, 561, 530, 506, 618, 596, 583, 574, 537, 566, 570, 556, 559, 675, 715, 617, 531, 630, 741, 603, 548, 602, 676, 665, 578, 525, 579, 580, 694, 603, 561, 592, 642, 652, 519, 590, 580, 555, 537, 539, 579, 593, 477, 584, 475, 488, 452, 439, 502, 571, 524, 526, 464, 538, 548, 494, 529, 553, 519, 484, 573, 578, 553, 541, 589, 670, 604, 588, 567, 566, 549, 566, 575, 622, 575, 613, 546, 579, 554, 514, 496, 608, 566, 511, 519, 514, 511, 527, 516, 544, 556, 544, 545, 575, 575, 551, 539, 718, 694, 477, 557, 538, 542, 596, 556, 593, 621, 516, 549, 504, 511, 604, 580, 486, 532, 557, 592, 566, 515, 547, 557, 574, 535, 548, 661, 542, 510, 576, 551, 551, 494, 596, 563, 449, 472, 502, 518, 510, 475, 520, 561, 525, 546, 564, 494, 490, 547, 553, 509, 500, 492, 526, 462, 508, 557, 527, 542, 575, 570, 503, 527, 633, 605, 506, 518, 615, 619, 537, 591, 587, 563, 518, 620, 651, 608, 600, 654, 603, 495, 516, 556, 630, 636, 619, 617, 537, 498, 498, 566, 649, 657, 644, 663, 641, 563, 543, 582, 624, 598, 638, 708, 635, 596, 599, 579, 596, 637, 688, 741, 682, 622, 639, 599, 578, 543, 617, 710, 664, 619, 666, 705, 624, 570, 592, 559, 607, 639, 696, 646, 664, 693, 607, 602, 581, 616, 604, 573, 642, 722, 683, 696, 556, 529, 630, 700, 670, 601, 623, 701, 590, 577, 698, 742, 725, 593, 631, 644, 511, 565, 629, 947, 1979, 1962, 895, 805, 1059, 1147, 795, 1278, 3781, 4009, 1754, 1579, 1817, 1966, 1955, 1802, 3297, 4102, 2366, 2055, 1564, 2431, 3797, 2399, 1845, 3191, 2138, 1696, 1054, 3314, 4374, 850, 1713, 2240, 1560, 839, 1470, 2816, 2486, 4498, 5401, 7559, 5540, 2541, 3554, 7330, 7916, 6988, 11130, 15931, 10548, 3866, 7464, 16383, 16541, 4123, 11130, 14932, 9085, 2434, 7123, 14793, 13739, 1067, 5129, 6584, 3849, 912, 2925, 5986, 5284, 701, 1383, 1708, 1234, 796, 982, 1621, 1472, 766, 848, 730, 593, 763, 824, 687, 700, 834, 1241, 1300, 813, 851, 1202, 995, 678, 914, 1466, 1763, 1220, 901, 1512, 1278, 789, 816, 996, 1180, 882, 892, 1339, 1086, 704, 561, 657, 679, 522, 532, 759, 736, 586, 583, 549, 656, 602, 463, 563, 595, 671, 599, 613, 639, 568, 510, 543, 561, 668, 587, 633, 639, 569, 512, 499, 601, 571, 553, 641, 641, 541, 576, 561, 590, 529, 565, 700, 665, 573, 625, 617, 632, 538, 762, 809, 702, 635, 696, 686, 673, 654, 944, 1225, 1069, 704, 873, 917, 910, 802, 977, 815, 781, 900, 814, 789, 857, 926, 1156, 955, 823, 968, 860, 778, 773, 907, 781, 744, 668, 727, 676, 656, 656, 649, 594, 620, 744, 854, 690, 596, 661, 688, 655, 680, 748, 763, 683, 666, 661, 664, 582, 724, 708, 641, 620, 629, 638, 520, 534, 486, 505, 624, 590, 565, 583, 559, 574, 525, 597, 637, 557, 588, 615, 618, 623, 581, 668, 608, 513, 625, 647, 622, 511, 651, 627, 663, 661, 661, 665, 537, 514, 554, 554, 547, 542, 594, 618, 565, 515, 475, 503, 533, 581, 587, 576, 557, 548, 604, 574, 488, 587, 578, 517, 528, 593, 613, 598, 524, 653, 651, 545, 591, 670, 574, 596, 596, 635, 695, 550, 633, 696, 620, 618, 771, 773, 701, 605, 612, 733, 594, 593, 733, 745, 653, 586, 648, 699, 664, 568, 603, 637, 648, 643, 697, 644, 551, 531, 623, 620, 480, 595, 721, 681, 532, 565, 597, 566, 519, 573, 732, 590, 579, 542, 569, 609, 552, 608, 627, 573, 655, 631, 547, 575, 559, 580, 594, 625, 647, 628, 517, 602, 676, 632, 566, 568, 678, 721, 666, 606, 741, 790, 690, 562, 645, 611, 576, 503, 560, 631, 565, 531, 667, 712, 583, 490, 638, 653, 532, 576, 735, 745, 587, 537, 632, 614, 546, 577, 566, 643, 544, 556, 650, 545, 575, 555, 511, 645, 640, 625, 634, 562, 603, 601, 595, 671, 692, 654, 594, 548, 656, 536, 524, 609, 578, 561, 646, 602, 566, 544, 672, 625, 528, 630, 701, 695, 571, 606, 669, 670, 629, 655, 648, 572, 536, 650, 647, 624, 677, 678, 599, 543, 631, 500, 580, 587, 544, 565, 579, 571, 554, 520, 521, 509, 509, 536, 497, 498, 483, 510, 521, 489, 511, 553, 508, 546, 594, 588, 601, 563, 588, 603, 566, 602, 615, 571, 606, 652, 554, 508, 602, 548, 510, 621, 664, 613, 519, 509, 627, 577, 508, 726, 804, 707, 641, 568, 665, 676, 565, 651, 709, 643, 624, 459, 558, 737, 637, 565, 550, 530, 526, 533, 544, 634, 636, 583, 612, 520, 564, 585, 563, 651, 688, 503, 552, 530, 483, 498, 514, 626, 625, 562, 583, 594, 506, 514, 519, 678, 675, 525, 571, 596, 523, 535, 550, 577, 594, 599, 463, 379, 588, 655, 548, 507, 554, 531, 503, 446, 406, 476, 528, 554, 514, 522, 462, 483, 458, 408, 425, 491, 507, 447, 439, 453, 464, 406, 404, 418, 474, 559, 492, 500, 491, 473, 511, 497, 530, 533, 374, 466, 501, 377, 392, 451, 552, 445, 391, 435, 482, 458, 402, 403, 481, 414, 378, 482, 486, 338, 337, 420, 437, 445, 370, 402, 365, 393, 387, 463, 460]"
0.4874996244907379,0.18254128098487854,-0.008442085236310959,0.1206183061003685,0.2979001998901367,0.006531253457069397,0.20524545013904572,-0.09025752544403076,0.3780841827392578,19.5,-0.08782565593719482,0.5101203918457031,22.25,-0.025312304496765137,0.5174160003662109,21.75,-0.007287859916687012,0.6530284881591797,19.5,0.3201562166213989,0.13074874877929688,16.75,"[534, 597, 562, 556, 627, 555, 563, 601, 524, 567, 637, 644, 662, 624, 604, 622, 525, 531, 595, 606, 579, 568, 536, 494, 488, 429, 446, 478, 478, 474, 460, 492, 441, 493, 461, 458, 458, 453, 503, 472, 544, 522, 503, 550, 553, 477, 504, 527, 595, 653, 517, 539, 527, 475, 477, 477, 633, 691, 546, 497, 481, 538, 537, 417, 562, 636, 539, 500, 567, 516, 455, 485, 593, 615, 587, 610, 656, 657, 584, 556, 567, 560, 588, 587, 557, 556, 615, 591, 612, 635, 642, 632, 577, 546, 568, 631, 505, 508, 539, 534, 522, 525, 529, 576, 549, 548, 472, 539, 591, 607, 630, 652, 506, 565, 524, 637, 656, 551, 605, 644, 558, 526, 599, 667, 679, 594, 581, 651, 532, 511, 524, 598, 566, 516, 536, 571, 568, 457, 540, 582, 511, 520, 563, 610, 564, 518, 503, 521, 547, 488, 431, 501, 616, 578, 519, 573, 567, 489, 517, 592, 522, 526, 562, 675, 570, 428, 489, 529, 484, 482, 555, 550, 554, 423, 491, 557, 428, 473, 499, 537, 526, 537, 516, 514, 592, 577, 469, 496, 590, 505, 401, 525, 646, 605, 479, 544, 533, 428, 444, 549, 600, 543, 445, 611, 553, 411, 514, 513, 508, 527, 516, 504, 482, 530, 540, 479, 473, 514, 583, 498, 574, 587, 497, 491, 535, 543, 468, 499, 544, 488, 430, 483, 563, 582, 515, 536, 550, 534, 578, 532, 511, 506, 524, 543, 529, 555, 554, 552, 594, 664, 622, 548, 609, 623, 565, 541, 513, 475, 591, 592, 583, 483, 521, 622, 588, 436, 545, 571, 524, 405, 510, 690, 610, 501, 535, 638, 611, 519, 560, 676, 615, 521, 578, 675, 629, 560, 662, 659, 587, 555, 507, 547, 563, 542, 452, 521, 599, 531, 512, 578, 563, 378, 492, 634, 677, 562, 545, 509, 456, 494, 475, 588, 603, 577, 557, 549, 490, 508, 445, 502, 446, 597, 567, 518, 408, 429, 500, 441, 412, 520, 529, 594, 532, 463, 535, 501, 464, 620, 637, 552, 549, 586, 638, 499, 577, 609, 592, 563, 508, 564, 590, 537, 568, 548, 548, 566, 578, 586, 556, 568, 617, 615, 561, 594, 603, 546, 557, 619, 625, 574, 546, 584, 591, 533, 566, 639, 626, 644, 501, 560, 571, 553, 584, 523, 565, 584, 499, 584, 629, 581, 487, 432, 447, 613, 639, 536, 581, 585, 558, 518, 577, 924, 902, 585, 599, 694, 780, 626, 665, 1355, 1416, 770, 643, 834, 1090, 875, 724, 1902, 2278, 1248, 844, 1054, 1552, 1577, 1150, 1563, 2634, 1814, 954, 943, 2164, 2626, 2702, 1521, 3635, 2831, 1467, 1125, 4058, 5114, 3633, 2441, 5176, 3884, 1869, 1827, 6036, 7258, 3387, 3630, 6088, 4281, 1889, 2426, 6528, 7326, 3116, 4475, 6324, 4126, 1493, 3005, 6733, 6945, 2101, 2510, 2334, 1481, 1076, 1959, 2984, 2721, 1134, 1681, 1476, 808, 734, 1054, 1012, 715, 692, 1274, 1155, 653, 557, 911, 1149, 780, 1091, 1076, 1249, 1257, 891, 1175, 1270, 1121, 1732, 1830, 2166, 1942, 1510, 1828, 1587, 1548, 1648, 1892, 1966, 1690, 1497, 1649, 1303, 1162, 963, 1079, 1023, 856, 686, 886, 836, 672, 600, 581, 675, 649, 578, 548, 582, 603, 588, 718, 666, 548, 595, 655, 648, 581, 553, 761, 745, 610, 573, 671, 654, 572, 521, 664, 666, 531, 497, 627, 693, 515, 493, 612, 576, 498, 589, 626, 651, 512, 568, 557, 590, 563, 673, 658, 581, 563, 697, 699, 624, 621, 753, 746, 603, 587, 661, 767, 709, 726, 713, 649, 754, 759, 657, 670, 706, 820, 739, 609, 725, 733, 620, 610, 632, 686, 675, 691, 641, 609, 743, 665, 604, 665, 683, 726, 659, 708, 541, 683, 632, 548, 577, 641, 689, 614, 585, 627, 666, 660, 616, 574, 651, 700, 591, 614, 621, 618, 603, 556, 569, 594, 597, 519, 518, 596, 550, 572, 590, 531, 622, 598, 596, 664, 604, 624, 665, 651, 578, 625, 676, 671, 581, 637, 610, 586, 603, 676, 653, 588, 689, 698, 559, 574, 599, 595, 670, 706, 654, 568, 608, 572, 628, 635, 612, 598, 507, 584, 559, 466, 576, 574, 621, 644, 607, 608, 560, 600, 560, 497, 558, 548, 579, 545, 545, 559, 519, 521, 570, 572, 574, 556, 514, 496, 515, 484, 540, 559, 520, 434, 488, 545, 545, 568, 572, 595, 555, 511, 570, 616, 515, 561, 625, 604, 499, 516, 643, 604, 595, 587, 582, 621, 604, 591, 555, 569, 461, 584, 552, 489, 530, 560, 555, 530, 627, 638, 587, 583, 613, 636, 604, 550, 568, 625, 595, 562, 560, 710, 652, 492, 622, 646, 634, 569, 586, 711, 628, 521, 826, 646, 635, 613, 543, 816, 678, 597, 832, 686, 603, 681, 599, 745, 663, 622, 672, 647, 633, 665, 602, 661, 661, 594, 466, 519, 555, 602, 553, 580, 619, 561, 628, 535, 543, 524, 519, 578, 587, 617, 665, 641, 473, 460, 554, 564, 471, 607, 599, 636, 612, 529, 546, 604, 517, 542, 610, 567, 623, 573, 567, 624, 600, 611, 571, 567, 591, 610, 573, 502, 466, 505, 573, 630, 658, 611, 499, 564, 655, 559, 593, 591, 550, 599, 488, 488, 622, 593, 524, 624, 592, 518, 516, 568, 519, 519, 461, 567, 630, 636, 496, 502, 596, 504, 520, 597, 668, 645, 563, 659, 669, 558, 543, 635, 685, 606, 614, 634, 600, 597, 580, 640, 626, 628, 502, 490, 552, 562, 638, 635, 609, 629, 545, 532, 497, 484, 683, 524, 576, 686, 630, 577, 610, 691, 640, 535, 631, 681, 588, 553, 682, 766, 606, 615, 736, 690, 601, 603, 727, 719, 510, 505, 590, 617, 591, 584, 599, 554, 475, 541, 632, 573, 585, 565, 531, 550, 508, 524, 687, 553, 559, 473, 568, 683, 501, 410, 475, 448, 426, 389, 490, 578, 508, 416, 416, 419, 453, 403, 424, 523, 454, 414, 479, 456, 449, 432, 459, 468, 450, 530, 522, 510, 495, 478, 448, 427, 439, 502, 469, 372, 369, 456, 433, 367, 375, 400, 455, 399, 347, 426, 432, 357, 453, 453, 439, 496, 547, 477, 413, 449, 405, 364, 381, 454, 476, 403, 398, 430, 407, 471, 415, 436, 449, 359, 418, 455]"
0.2901630401611328,0.009040150791406631,0.2836953401565552,-0.2926931083202362,0.0137944296002388,0.2943589389324188,-0.26376861333847046,-0.7965469360351562,-1.1864662170410156,16.25,-0.7029914855957031,-1.2622833251953125,17.5,-0.5177402496337891,-1.0966300964355469,15.75,-0.13765335083007812,-0.5297183990478516,15.5,-0.05053520202636719,-0.1975536346435547,17.25,"[552, 582, 682, 613, 481, 609, 678, 579, 500, 578, 652, 571, 516, 575, 693, 646, 509, 583, 598, 578, 542, 546, 535, 489, 400, 396, 477, 533, 504, 524, 524, 393, 445, 497, 511, 433, 485, 537, 523, 445, 475, 490, 515, 521, 574, 535, 582, 556, 508, 509, 563, 577, 569, 549, 511, 500, 521, 617, 601, 523, 509, 619, 604, 481, 503, 591, 618, 494, 497, 576, 537, 480, 527, 587, 591, 555, 583, 656, 594, 501, 554, 514, 527, 633, 644, 621, 527, 487, 628, 649, 587, 477, 502, 548, 543, 558, 600, 624, 550, 522, 563, 595, 603, 568, 570, 546, 457, 469, 540, 466, 503, 559, 547, 639, 597, 528, 640, 579, 534, 553, 631, 709, 565, 484, 571, 502, 444, 538, 527, 623, 609, 484, 522, 526, 462, 490, 599, 570, 627, 579, 588, 564, 532, 593, 574, 524, 552, 557, 566, 547, 566, 558, 495, 541, 574, 520, 518, 581, 546, 476, 468, 485, 573, 507, 484, 544, 489, 474, 571, 514, 501, 510, 480, 527, 518, 492, 545, 417, 449, 532, 565, 514, 497, 537, 632, 519, 542, 543, 627, 691, 543, 531, 466, 481, 494, 469, 526, 567, 538, 523, 606, 597, 578, 606, 623, 600, 582, 564, 617, 711, 577, 503, 626, 657, 533, 502, 549, 557, 584, 574, 567, 596, 532, 495, 498, 581, 627, 615, 553, 598, 638, 562, 599, 681, 638, 603, 616, 716, 767, 642, 614, 667, 624, 582, 588, 587, 637, 601, 651, 557, 580, 432, 481, 479, 504, 707, 575, 572, 541, 476, 501, 524, 461, 516, 599, 643, 619, 592, 520, 502, 529, 550, 494, 565, 567, 531, 485, 501, 503, 457, 530, 501, 570, 625, 632, 542, 467, 577, 467, 460, 595, 640, 596, 505, 524, 566, 579, 527, 647, 612, 539, 548, 530, 585, 495, 564, 681, 573, 485, 499, 610, 548, 566, 625, 573, 494, 610, 652, 600, 457, 598, 607, 602, 526, 538, 655, 698, 630, 665, 670, 651, 566, 578, 648, 629, 678, 531, 592, 610, 583, 619, 607, 593, 558, 593, 583, 561, 590, 628, 647, 627, 592, 615, 619, 671, 637, 585, 592, 574, 642, 671, 607, 658, 577, 617, 612, 548, 694, 469, 541, 595, 537, 548, 647, 552, 552, 509, 578, 610, 468, 551, 642, 545, 444, 450, 605, 702, 627, 546, 572, 610, 498, 591, 852, 841, 621, 573, 639, 658, 549, 1103, 2137, 1905, 785, 988, 1031, 1147, 766, 1715, 3941, 3744, 1433, 1419, 1929, 1905, 1227, 1388, 4171, 4679, 2248, 1221, 2257, 1729, 1454, 1457, 3707, 3911, 1843, 1124, 1807, 1844, 1416, 1190, 2821, 2935, 1413, 669, 1111, 1996, 1692, 2087, 1674, 2140, 1754, 1132, 807, 1856, 2568, 2990, 4409, 3819, 2181, 1402, 2015, 2611, 2040, 3292, 6472, 5902, 2465, 1331, 2889, 4400, 2903, 2372, 4383, 3933, 1714, 1095, 2419, 3605, 2480, 1116, 1613, 1435, 910, 790, 1418, 1683, 1080, 729, 945, 961, 814, 780, 943, 974, 644, 1293, 1398, 1413, 1469, 1183, 1274, 1317, 910, 1725, 1789, 1917, 1939, 1476, 1701, 1622, 1116, 1433, 1319, 1500, 1557, 1305, 1418, 1170, 1002, 870, 817, 956, 814, 840, 940, 735, 675, 669, 795, 675, 580, 649, 749, 730, 564, 620, 638, 643, 591, 555, 588, 652, 617, 492, 576, 630, 579, 512, 551, 660, 559, 556, 561, 596, 569, 544, 610, 674, 592, 575, 585, 611, 655, 585, 560, 608, 588, 625, 632, 656, 614, 634, 675, 626, 572, 722, 818, 825, 673, 572, 685, 741, 691, 679, 831, 775, 621, 560, 660, 713, 618, 592, 695, 678, 671, 625, 647, 727, 645, 523, 566, 536, 537, 608, 594, 570, 577, 547, 583, 606, 525, 515, 549, 607, 699, 547, 629, 673, 552, 520, 650, 695, 599, 583, 664, 648, 583, 574, 628, 578, 537, 499, 697, 634, 530, 485, 508, 610, 496, 440, 661, 691, 561, 522, 586, 635, 501, 518, 563, 602, 517, 504, 536, 496, 470, 633, 606, 563, 593, 569, 528, 538, 532, 674, 601, 591, 670, 634, 604, 675, 685, 679, 612, 666, 652, 580, 591, 645, 691, 698, 612, 565, 601, 650, 676, 577, 612, 697, 579, 624, 647, 665, 660, 592, 642, 632, 567, 597, 560, 600, 653, 650, 644, 680, 586, 570, 585, 554, 638, 733, 710, 674, 549, 519, 603, 638, 652, 693, 658, 622, 614, 609, 655, 580, 570, 680, 642, 578, 526, 556, 581, 506, 637, 679, 613, 550, 568, 578, 493, 577, 644, 643, 600, 528, 551, 591, 545, 559, 520, 574, 583, 592, 666, 612, 533, 612, 601, 595, 640, 670, 595, 587, 590, 615, 654, 634, 663, 594, 585, 541, 559, 551, 582, 635, 613, 545, 536, 594, 611, 488, 476, 610, 605, 593, 570, 603, 552, 497, 577, 651, 625, 689, 633, 545, 508, 551, 570, 491, 628, 501, 616, 618, 532, 572, 657, 615, 516, 539, 555, 602, 602, 604, 561, 575, 572, 605, 483, 607, 685, 659, 645, 625, 604, 529, 529, 722, 724, 591, 609, 638, 551, 485, 589, 583, 503, 501, 644, 632, 493, 538, 554, 633, 565, 499, 624, 736, 655, 586, 575, 580, 519, 484, 510, 628, 678, 593, 613, 579, 533, 554, 613, 562, 555, 599, 674, 630, 487, 551, 601, 566, 556, 605, 576, 567, 586, 597, 596, 498, 578, 507, 600, 571, 512, 531, 627, 622, 576, 484, 588, 559, 541, 585, 596, 592, 537, 554, 635, 651, 633, 586, 557, 577, 548, 624, 683, 694, 608, 531, 518, 674, 663, 653, 678, 679, 598, 616, 606, 687, 719, 607, 605, 581, 575, 588, 647, 672, 582, 558, 564, 585, 499, 566, 663, 580, 481, 528, 597, 565, 479, 621, 722, 633, 554, 511, 616, 644, 585, 629, 622, 611, 649, 515, 505, 559, 573, 574, 485, 528, 543, 471, 542, 595, 548, 517, 521, 579, 520, 437, 439, 472, 526, 436, 437, 490, 460, 400, 494, 475, 447, 454, 439, 533, 503, 473, 448, 440, 414, 454, 463, 469, 496, 527, 469, 393, 379, 498, 466, 436, 508, 399, 405, 359, 393, 461, 440, 372, 387, 420, 362, 367, 363, 383, 443, 470, 453, 471, 372, 372, 432, 377, 368, 396, 444, 467, 444, 444, 420, 398, 459, 425, 410]"
0.31714099645614624,0.07850679755210876,0.1304573267698288,-0.2031770944595337,0.08436300605535507,0.06488746404647827,-0.14919602870941162,-0.1681525707244873,0.5204200744628906,21.5,-0.11865687370300293,0.3220081329345703,21.0,-0.10478091239929199,0.3234386444091797,24.5,0.10822224617004395,-0.25634765625,20.25,0.2259533405303955,-0.06451606750488281,22.5,"[601, 632, 648, 686, 705, 683, 650, 633, 628, 595, 590, 550, 618, 685, 592, 635, 471, 554, 570, 559, 523, 542, 570, 501, 440, 568, 581, 543, 462, 476, 586, 504, 486, 564, 506, 499, 501, 528, 583, 530, 565, 541, 535, 575, 598, 584, 540, 519, 535, 585, 566, 595, 561, 547, 532, 479, 566, 594, 544, 517, 504, 487, 512, 529, 541, 511, 465, 437, 467, 440, 434, 503, 640, 494, 593, 622, 520, 480, 497, 610, 535, 545, 517, 472, 521, 510, 473, 548, 529, 556, 480, 473, 559, 579, 572, 551, 518, 441, 516, 565, 498, 467, 506, 584, 460, 512, 628, 613, 505, 523, 595, 620, 496, 600, 641, 579, 531, 554, 581, 558, 569, 616, 605, 543, 470, 539, 577, 507, 555, 467, 472, 526, 529, 547, 593, 536, 568, 585, 593, 557, 528, 537, 538, 591, 484, 557, 499, 467, 485, 475, 498, 484, 611, 625, 498, 472, 562, 528, 565, 583, 581, 603, 568, 596, 572, 496, 565, 588, 473, 548, 548, 537, 609, 650, 594, 494, 491, 521, 581, 649, 676, 640, 550, 528, 484, 458, 618, 667, 497, 508, 563, 544, 409, 466, 580, 553, 483, 477, 556, 533, 464, 601, 629, 604, 593, 576, 658, 493, 553, 582, 638, 604, 604, 593, 610, 609, 568, 563, 576, 559, 582, 553, 582, 657, 634, 621, 579, 570, 620, 627, 602, 598, 670, 617, 468, 506, 583, 685, 645, 565, 612, 565, 477, 447, 479, 551, 533, 547, 543, 593, 633, 552, 456, 541, 586, 545, 451, 471, 536, 483, 485, 486, 483, 448, 572, 507, 516, 536, 532, 561, 552, 553, 555, 527, 567, 603, 579, 582, 605, 640, 514, 509, 549, 499, 417, 457, 593, 576, 601, 601, 482, 492, 500, 478, 495, 507, 674, 638, 527, 626, 598, 508, 526, 546, 642, 618, 635, 748, 583, 506, 592, 554, 493, 507, 598, 583, 560, 508, 595, 589, 591, 469, 514, 587, 570, 493, 564, 634, 598, 519, 598, 641, 519, 472, 565, 574, 563, 575, 608, 609, 586, 561, 539, 545, 570, 583, 570, 555, 567, 495, 476, 555, 572, 637, 609, 553, 535, 525, 504, 556, 571, 583, 606, 594, 524, 552, 584, 568, 506, 585, 542, 547, 538, 513, 623, 561, 658, 641, 622, 568, 556, 503, 555, 695, 632, 687, 664, 561, 574, 526, 496, 585, 699, 1018, 949, 581, 614, 747, 684, 531, 1701, 3380, 2963, 1075, 1241, 1656, 1812, 1005, 2745, 6434, 6258, 2430, 1876, 2941, 3056, 1865, 2001, 6052, 6674, 3247, 1205, 2700, 3165, 2518, 1053, 3664, 4194, 2314, 795, 1659, 2616, 2079, 2252, 4036, 3818, 1899, 1316, 1870, 2788, 2124, 5030, 6656, 7493, 4850, 2252, 3071, 6372, 7175, 5841, 6596, 9463, 6669, 2463, 3240, 8846, 10452, 3922, 3575, 5736, 4225, 1719, 1925, 5843, 7085, 1726, 1910, 2299, 1580, 901, 999, 2051, 2446, 799, 1240, 1322, 801, 655, 874, 1086, 967, 654, 616, 742, 833, 730, 731, 781, 806, 1028, 1171, 865, 836, 1049, 818, 717, 773, 860, 1272, 1054, 685, 937, 783, 711, 657, 563, 778, 735, 588, 643, 577, 642, 659, 532, 574, 534, 548, 520, 561, 575, 508, 598, 656, 637, 499, 516, 640, 525, 571, 597, 622, 643, 544, 462, 603, 587, 587, 599, 503, 608, 580, 621, 612, 521, 623, 542, 556, 617, 525, 551, 644, 538, 576, 630, 628, 552, 557, 539, 606, 638, 643, 752, 962, 883, 756, 690, 668, 798, 715, 922, 1151, 1019, 785, 788, 851, 954, 801, 756, 803, 814, 689, 668, 763, 811, 755, 738, 666, 628, 679, 689, 669, 672, 690, 760, 638, 701, 762, 729, 715, 626, 686, 601, 627, 646, 718, 628, 632, 679, 589, 580, 662, 615, 691, 650, 688, 717, 605, 571, 602, 575, 635, 666, 587, 581, 562, 643, 637, 547, 674, 799, 699, 534, 539, 597, 652, 672, 701, 687, 659, 576, 593, 614, 600, 684, 650, 647, 566, 569, 617, 588, 666, 572, 554, 628, 624, 655, 628, 686, 605, 555, 741, 741, 591, 641, 695, 739, 623, 590, 707, 650, 524, 561, 676, 648, 666, 606, 595, 626, 565, 568, 596, 636, 658, 618, 563, 662, 622, 601, 629, 611, 731, 671, 612, 559, 611, 675, 529, 670, 667, 666, 673, 639, 684, 606, 645, 784, 745, 680, 674, 661, 728, 690, 710, 796, 667, 588, 656, 671, 587, 581, 737, 716, 640, 764, 710, 543, 564, 717, 725, 701, 573, 660, 713, 638, 605, 605, 680, 579, 616, 579, 547, 526, 521, 511, 526, 558, 646, 655, 586, 547, 685, 765, 698, 547, 612, 699, 669, 560, 637, 664, 620, 553, 592, 552, 640, 617, 510, 581, 581, 609, 530, 525, 566, 595, 545, 584, 613, 629, 575, 511, 542, 600, 617, 515, 570, 564, 566, 548, 541, 575, 565, 489, 505, 539, 566, 617, 566, 556, 586, 501, 495, 568, 550, 597, 628, 512, 559, 623, 572, 638, 599, 546, 610, 552, 524, 630, 631, 702, 563, 498, 682, 679, 611, 564, 661, 655, 558, 531, 613, 579, 651, 655, 673, 687, 696, 587, 596, 550, 656, 668, 546, 631, 624, 582, 573, 563, 559, 500, 477, 590, 599, 595, 573, 566, 563, 501, 488, 496, 605, 571, 479, 503, 563, 617, 535, 580, 627, 534, 478, 510, 474, 512, 570, 620, 632, 634, 660, 548, 563, 621, 603, 576, 570, 602, 583, 539, 628, 669, 622, 641, 737, 710, 672, 627, 651, 669, 655, 624, 965, 901, 702, 586, 695, 906, 752, 799, 1159, 1025, 617, 611, 863, 1241, 1030, 828, 975, 888, 682, 689, 814, 1081, 940, 753, 657, 503, 598, 634, 633, 697, 703, 652, 533, 589, 594, 488, 505, 476, 625, 742, 713, 631, 566, 563, 597, 559, 603, 688, 529, 489, 570, 563, 507, 543, 642, 619, 584, 640, 637, 573, 556, 543, 649, 534, 537, 567, 556, 535, 514, 497, 508, 459, 511, 619, 564, 435, 450, 535, 555, 390, 435, 461, 435, 418, 441, 435, 369, 452, 428, 439, 413, 440, 451, 431, 437, 473, 416, 482, 418, 420, 386, 419, 531, 409, 456, 483, 437, 447, 426, 436, 490, 442, 495, 431, 382, 438, 428, 413, 384, 508, 549, 453, 403, 473, 512, 443, 433]"
0.45945411920547485,0.07270170748233795,0.057296812534332275,0.11822816729545593,0.11071158200502396,0.016576997935771942,0.20690050721168518,-0.3108224868774414,0.7398605346679688,17.0,-0.2467355728149414,1.0426998138427734,28.25,-0.0922403335571289,0.5792140960693359,25.75,-0.0826559066772461,0.7574558258056641,18.75,-0.02171611785888672,0.9195327758789062,18.5,"[551, 652, 684, 665, 683, 669, 688, 651, 607, 621, 629, 645, 671, 632, 609, 640, 595, 574, 549, 587, 527, 489, 445, 517, 611, 578, 493, 517, 503, 542, 484, 487, 518, 537, 472, 567, 548, 504, 514, 440, 540, 545, 597, 569, 540, 510, 487, 531, 519, 543, 521, 467, 498, 570, 528, 483, 505, 486, 599, 558, 492, 557, 549, 529, 546, 499, 508, 518, 571, 571, 515, 508, 489, 483, 553, 547, 585, 492, 491, 591, 489, 468, 584, 566, 548, 500, 539, 591, 532, 572, 583, 625, 577, 571, 547, 515, 526, 607, 590, 559, 519, 524, 493, 468, 476, 507, 575, 544, 462, 492, 536, 498, 599, 510, 560, 602, 497, 483, 555, 653, 691, 547, 527, 638, 624, 516, 551, 675, 556, 555, 506, 519, 579, 525, 538, 570, 513, 556, 544, 457, 570, 581, 546, 471, 495, 534, 540, 471, 492, 504, 489, 464, 506, 581, 584, 507, 540, 627, 595, 508, 530, 539, 488, 491, 566, 541, 534, 489, 578, 592, 450, 495, 606, 551, 500, 522, 511, 567, 558, 535, 570, 513, 473, 491, 566, 550, 509, 524, 593, 527, 465, 529, 622, 502, 532, 584, 553, 479, 483, 588, 565, 633, 546, 476, 565, 542, 550, 501, 560, 664, 575, 510, 614, 632, 584, 494, 684, 757, 718, 664, 638, 678, 685, 633, 663, 668, 657, 570, 592, 574, 556, 556, 605, 523, 525, 627, 615, 464, 534, 544, 573, 551, 549, 583, 586, 474, 534, 611, 560, 554, 584, 559, 576, 509, 560, 659, 489, 501, 562, 531, 447, 545, 600, 583, 505, 470, 564, 580, 544, 607, 627, 583, 512, 460, 503, 519, 518, 566, 611, 600, 524, 525, 621, 587, 563, 544, 575, 575, 547, 517, 519, 628, 695, 604, 489, 522, 551, 545, 594, 711, 759, 714, 633, 614, 545, 527, 603, 614, 617, 688, 651, 632, 603, 569, 590, 534, 594, 648, 571, 621, 651, 545, 515, 509, 592, 597, 585, 733, 657, 562, 596, 578, 610, 581, 614, 694, 581, 564, 617, 516, 601, 650, 626, 582, 596, 644, 611, 605, 612, 593, 586, 613, 501, 642, 631, 606, 562, 563, 639, 584, 585, 646, 554, 648, 645, 641, 633, 544, 498, 541, 625, 659, 552, 606, 630, 557, 520, 559, 620, 584, 511, 567, 606, 581, 543, 641, 550, 461, 512, 613, 654, 521, 545, 593, 595, 587, 546, 527, 619, 587, 548, 743, 931, 760, 620, 656, 631, 670, 654, 1422, 1716, 1026, 787, 788, 725, 1028, 1243, 2128, 2673, 1675, 1352, 683, 1751, 2532, 1914, 2710, 3547, 2262, 1867, 1194, 3370, 4136, 1977, 4339, 5257, 3084, 1405, 2848, 5419, 4969, 4675, 6474, 10760, 7319, 2197, 4019, 10337, 11326, 7006, 9363, 16249, 11102, 3568, 6571, 18016, 19260, 4612, 7566, 11072, 6932, 2546, 6801, 14986, 14327, 1404, 2914, 3198, 2176, 808, 2983, 5087, 4015, 965, 914, 846, 886, 768, 757, 1054, 1003, 1096, 935, 615, 814, 920, 710, 607, 877, 979, 1126, 781, 619, 821, 782, 720, 715, 920, 1090, 925, 721, 781, 745, 653, 595, 772, 918, 771, 679, 683, 605, 685, 647, 575, 601, 538, 545, 655, 626, 546, 528, 629, 634, 649, 635, 639, 660, 584, 538, 605, 575, 515, 588, 642, 623, 545, 544, 617, 552, 564, 599, 675, 648, 506, 567, 607, 531, 508, 513, 612, 618, 511, 563, 585, 819, 781, 491, 573, 663, 670, 535, 853, 1091, 944, 643, 647, 742, 830, 681, 627, 786, 790, 672, 624, 625, 688, 699, 707, 586, 652, 696, 665, 565, 554, 705, 737, 712, 769, 742, 608, 630, 704, 662, 705, 787, 788, 673, 619, 704, 735, 611, 754, 812, 772, 775, 709, 641, 670, 675, 851, 852, 760, 897, 860, 828, 904, 783, 733, 663, 597, 798, 865, 752, 756, 713, 702, 533, 608, 797, 745, 598, 677, 734, 659, 535, 576, 715, 705, 687, 654, 616, 683, 595, 534, 591, 641, 687, 683, 670, 660, 592, 575, 707, 708, 568, 599, 683, 648, 631, 635, 648, 593, 541, 544, 599, 643, 543, 558, 593, 577, 576, 569, 599, 665, 595, 510, 610, 600, 613, 621, 583, 624, 662, 614, 691, 652, 592, 652, 623, 723, 738, 644, 692, 764, 705, 630, 605, 694, 671, 602, 663, 650, 631, 587, 631, 646, 633, 694, 736, 639, 603, 571, 603, 669, 640, 668, 793, 627, 623, 673, 645, 462, 546, 633, 617, 489, 563, 651, 546, 538, 639, 618, 570, 595, 566, 580, 518, 686, 785, 676, 579, 652, 643, 594, 586, 614, 739, 651, 567, 662, 647, 671, 628, 672, 706, 628, 618, 601, 609, 591, 616, 671, 668, 757, 651, 569, 669, 604, 667, 537, 649, 677, 594, 499, 556, 575, 580, 833, 865, 721, 635, 616, 652, 691, 703, 797, 726, 638, 611, 570, 684, 603, 607, 760, 697, 718, 636, 556, 539, 678, 771, 522, 587, 598, 646, 573, 551, 592, 504, 666, 557, 452, 521, 614, 590, 480, 546, 683, 615, 615, 643, 709, 628, 542, 670, 666, 634, 752, 775, 657, 635, 687, 756, 713, 629, 524, 605, 577, 505, 630, 672, 679, 618, 545, 661, 706, 603, 577, 670, 724, 622, 546, 639, 689, 658, 631, 761, 649, 623, 570, 571, 609, 616, 543, 595, 641, 643, 694, 678, 555, 564, 640, 665, 759, 725, 594, 582, 648, 578, 570, 726, 609, 680, 518, 492, 589, 615, 636, 577, 667, 759, 666, 605, 659, 662, 639, 630, 639, 759, 706, 670, 557, 580, 661, 685, 697, 761, 720, 602, 553, 681, 755, 735, 564, 706, 726, 555, 507, 668, 797, 693, 560, 579, 603, 590, 523, 489, 719, 755, 631, 615, 697, 652, 541, 512, 669, 731, 548, 600, 767, 700, 569, 603, 710, 696, 522, 701, 740, 640, 550, 584, 748, 634, 456, 526, 589, 540, 434, 514, 718, 642, 605, 437, 493, 551, 474, 405, 519, 604, 561, 441, 443, 573, 579, 441, 394, 521, 415, 456, 399, 443, 447, 430, 436, 371, 384, 368, 422, 450, 471, 463, 440, 422, 432, 389, 408, 459, 389, 356, 387, 441, 516, 419, 432, 449, 429, 381, 431, 532, 453, 401, 393, 416, 398, 389, 407, 454, 479, 541, 438, 402, 377, 389, 388, 367]"
0.3820125460624695,-0.0333394855260849,0.09251796454191208,-0.07229429483413696,-0.08746718615293503,0.014644451439380646,-0.04928848147392273,0.00248110294342041,0.13103485107421875,26.0,0.035382866859436035,0.13189315795898438,29.25,0.0592724084854126,0.39768218994140625,26.25,0.10519182682037354,0.12559890747070312,17.0,0.16055262088775635,0.267791748046875,16.25,"[683, 682, 666, 650, 665, 650, 667, 685, 573, 678, 647, 631, 681, 656, 677, 579, 453, 596, 570, 554, 608, 579, 576, 497, 456, 424, 486, 501, 433, 396, 495, 519, 515, 479, 473, 554, 537, 399, 494, 513, 482, 605, 547, 563, 548, 449, 508, 466, 426, 545, 551, 497, 524, 531, 520, 478, 507, 544, 562, 548, 505, 505, 485, 529, 509, 502, 480, 514, 511, 484, 476, 536, 496, 478, 463, 446, 429, 508, 474, 482, 558, 520, 605, 579, 514, 519, 545, 577, 486, 508, 594, 575, 472, 515, 533, 511, 417, 433, 511, 524, 465, 485, 513, 486, 517, 580, 483, 476, 534, 632, 609, 511, 526, 511, 490, 509, 511, 595, 538, 528, 588, 521, 513, 544, 538, 542, 544, 610, 591, 629, 547, 532, 655, 607, 448, 435, 535, 593, 555, 561, 659, 621, 506, 481, 587, 571, 468, 574, 650, 582, 549, 569, 552, 544, 525, 574, 623, 586, 529, 529, 483, 516, 519, 486, 546, 540, 559, 556, 601, 497, 519, 489, 521, 506, 517, 587, 685, 640, 622, 642, 567, 517, 507, 605, 567, 579, 564, 636, 647, 569, 474, 487, 497, 475, 470, 588, 587, 600, 531, 383, 509, 487, 533, 603, 604, 674, 644, 486, 574, 512, 592, 710, 662, 569, 644, 648, 513, 588, 577, 584, 594, 645, 605, 529, 623, 680, 600, 497, 621, 782, 660, 591, 782, 817, 637, 579, 648, 780, 680, 620, 626, 588, 511, 506, 605, 642, 574, 578, 570, 507, 502, 578, 565, 577, 598, 637, 561, 588, 525, 603, 665, 551, 627, 643, 526, 545, 545, 592, 566, 503, 620, 627, 516, 479, 494, 533, 502, 598, 643, 609, 542, 468, 486, 594, 574, 561, 633, 645, 475, 445, 469, 551, 547, 523, 503, 503, 522, 527, 503, 485, 547, 586, 522, 508, 584, 647, 684, 640, 697, 595, 548, 557, 503, 602, 594, 589, 658, 667, 620, 552, 555, 561, 483, 471, 525, 501, 614, 635, 649, 678, 660, 591, 595, 672, 675, 660, 672, 552, 600, 531, 589, 729, 609, 615, 638, 618, 536, 533, 613, 702, 645, 572, 566, 602, 577, 536, 570, 576, 581, 572, 539, 610, 617, 607, 619, 628, 632, 572, 547, 652, 534, 528, 559, 625, 528, 412, 570, 684, 700, 546, 614, 732, 606, 480, 522, 596, 606, 574, 537, 612, 622, 462, 544, 544, 649, 645, 574, 656, 647, 505, 552, 786, 853, 633, 682, 847, 713, 573, 730, 1183, 1306, 955, 785, 912, 800, 730, 901, 1033, 1419, 1196, 810, 986, 1621, 1551, 921, 1696, 2403, 1636, 810, 1327, 2843, 2757, 796, 4008, 4670, 2462, 738, 2161, 4257, 3517, 2413, 6043, 6523, 3323, 1330, 2745, 5201, 4215, 5332, 7179, 10050, 6500, 2842, 3629, 9648, 10646, 6383, 9446, 15090, 10022, 3431, 5497, 15556, 16847, 3372, 7950, 11623, 7256, 1898, 5265, 12422, 12253, 975, 2957, 3832, 2292, 750, 2136, 4079, 3701, 822, 1082, 1218, 1068, 810, 983, 1484, 1257, 747, 1335, 1287, 774, 925, 892, 1174, 1023, 602, 916, 882, 482, 637, 631, 668, 648, 535, 647, 552, 456, 556, 555, 539, 535, 602, 639, 582, 555, 577, 546, 609, 569, 545, 592, 621, 586, 564, 580, 600, 564, 540, 577, 574, 506, 570, 559, 527, 515, 591, 638, 648, 533, 489, 543, 563, 606, 563, 751, 766, 515, 497, 519, 554, 562, 664, 881, 919, 638, 618, 660, 718, 650, 704, 911, 871, 597, 618, 698, 754, 637, 593, 679, 590, 518, 560, 588, 647, 540, 489, 546, 486, 553, 577, 564, 624, 571, 605, 664, 653, 635, 708, 725, 750, 713, 698, 738, 742, 727, 727, 761, 735, 788, 792, 568, 700, 768, 709, 653, 807, 926, 568, 618, 654, 673, 584, 560, 760, 743, 524, 537, 618, 580, 622, 639, 605, 671, 497, 460, 489, 513, 612, 626, 471, 525, 566, 524, 611, 600, 581, 583, 640, 715, 593, 546, 659, 567, 511, 578, 670, 743, 501, 612, 637, 550, 572, 624, 660, 612, 483, 517, 605, 620, 542, 683, 735, 609, 583, 617, 643, 654, 693, 718, 681, 543, 586, 617, 649, 651, 599, 643, 603, 477, 552, 631, 756, 680, 496, 687, 767, 646, 588, 633, 640, 541, 530, 600, 605, 594, 642, 622, 606, 600, 692, 707, 701, 641, 606, 528, 541, 541, 538, 600, 654, 657, 644, 593, 619, 616, 511, 575, 609, 581, 677, 612, 585, 647, 479, 587, 641, 601, 709, 627, 665, 744, 592, 546, 774, 774, 742, 634, 651, 697, 701, 645, 673, 707, 804, 575, 669, 664, 701, 728, 561, 712, 861, 698, 644, 564, 650, 738, 576, 712, 860, 657, 591, 679, 687, 720, 615, 742, 615, 657, 572, 609, 619, 606, 600, 592, 538, 635, 765, 678, 569, 607, 723, 638, 583, 615, 766, 687, 580, 673, 695, 674, 590, 573, 699, 722, 617, 630, 695, 633, 546, 603, 612, 528, 545, 583, 558, 514, 518, 485, 574, 589, 550, 551, 512, 541, 536, 543, 537, 469, 522, 609, 569, 572, 489, 521, 567, 499, 546, 571, 605, 624, 553, 516, 578, 519, 501, 585, 565, 569, 725, 502, 537, 672, 600, 553, 595, 728, 741, 563, 485, 640, 652, 597, 583, 621, 620, 565, 519, 599, 643, 621, 643, 593, 613, 605, 552, 654, 642, 538, 675, 705, 669, 659, 621, 653, 612, 528, 632, 702, 623, 630, 578, 582, 640, 600, 573, 614, 664, 794, 775, 648, 724, 714, 634, 695, 543, 819, 928, 628, 622, 729, 935, 902, 530, 804, 869, 555, 597, 682, 798, 844, 638, 697, 685, 593, 669, 695, 706, 744, 525, 597, 619, 563, 572, 528, 606, 645, 517, 521, 520, 527, 637, 590, 472, 524, 490, 582, 546, 513, 572, 540, 574, 572, 587, 542, 427, 518, 534, 548, 532, 593, 513, 540, 474, 454, 555, 499, 486, 546, 506, 448, 492, 469, 532, 456, 501, 608, 461, 467, 474, 453, 477, 436, 460, 533, 396, 428, 519, 446, 441, 423, 395, 488, 475, 451, 466, 419, 432, 392, 424, 506, 370, 405, 352, 328, 368, 400, 328, 322, 448, 444, 436, 383, 386, 433, 417, 418, 406, 379, 360, 361, 389, 395, 420, 436, 338, 372, 407, 379, 368, 406, 401, 360]"
0.4136005938053131,0.03993947058916092,0.06195788457989693,0.0222000852227211,0.07545433193445206,0.02748434990644455,0.0811813622713089,-0.06359994411468506,0.6960868835449219,20.75,0.053988099098205566,-0.5889415740966797,19.5,0.06357252597808838,-0.5145549774169922,23.0,0.12565672397613525,-0.382232666015625,24.25,0.17286360263824463,-0.31685829162597656,20.75,"[546, 602, 637, 639, 695, 638, 638, 602, 514, 579, 604, 625, 622, 571, 582, 543, 481, 532, 553, 592, 572, 535, 521, 483, 481, 523, 566, 558, 524, 578, 549, 499, 407, 442, 519, 533, 494, 494, 517, 469, 560, 501, 537, 653, 672, 510, 496, 578, 524, 471, 440, 564, 630, 538, 468, 494, 545, 565, 444, 467, 541, 544, 562, 495, 487, 501, 466, 454, 541, 577, 577, 550, 498, 501, 440, 426, 517, 564, 604, 519, 536, 552, 593, 536, 584, 659, 602, 516, 495, 519, 572, 560, 576, 560, 521, 527, 477, 458, 523, 526, 540, 540, 539, 541, 573, 517, 573, 575, 584, 546, 570, 583, 637, 605, 627, 610, 519, 579, 538, 593, 569, 522, 562, 625, 582, 555, 606, 622, 667, 603, 602, 572, 625, 600, 607, 693, 603, 617, 683, 673, 660, 673, 648, 648, 528, 682, 690, 553, 543, 631, 661, 567, 587, 609, 639, 615, 571, 553, 653, 648, 606, 681, 622, 552, 552, 563, 559, 542, 515, 636, 693, 618, 542, 505, 559, 571, 551, 623, 594, 544, 482, 468, 583, 534, 583, 533, 587, 566, 493, 500, 480, 528, 540, 538, 502, 560, 566, 538, 543, 553, 510, 546, 515, 573, 570, 483, 519, 575, 486, 541, 471, 511, 548, 507, 521, 514, 540, 515, 481, 557, 541, 537, 559, 461, 477, 464, 558, 582, 472, 519, 509, 444, 553, 525, 535, 600, 605, 562, 379, 499, 579, 531, 554, 579, 608, 560, 514, 489, 511, 440, 426, 573, 607, 532, 562, 584, 434, 490, 415, 398, 473, 485, 445, 462, 531, 616, 583, 501, 488, 562, 495, 483, 596, 594, 565, 525, 523, 526, 582, 581, 542, 595, 502, 436, 416, 482, 556, 525, 513, 571, 511, 465, 455, 551, 584, 513, 543, 593, 658, 608, 535, 547, 606, 608, 412, 523, 610, 536, 492, 611, 637, 468, 598, 622, 642, 537, 499, 634, 603, 536, 571, 569, 598, 575, 587, 599, 503, 558, 545, 538, 547, 609, 627, 560, 574, 563, 625, 571, 589, 687, 718, 585, 585, 669, 560, 541, 632, 658, 722, 619, 629, 680, 619, 569, 561, 550, 578, 611, 602, 646, 578, 569, 543, 580, 645, 638, 584, 549, 522, 591, 604, 602, 592, 534, 615, 542, 667, 591, 573, 637, 563, 433, 505, 596, 511, 602, 664, 653, 566, 487, 534, 586, 613, 703, 763, 683, 623, 527, 609, 684, 722, 1066, 993, 615, 619, 581, 683, 607, 789, 1369, 1322, 736, 571, 702, 886, 736, 725, 911, 902, 669, 540, 698, 782, 715, 1001, 1021, 1540, 1283, 616, 1095, 1741, 1707, 1548, 4697, 6652, 4237, 922, 3269, 6374, 5877, 841, 8601, 10788, 6110, 733, 5209, 9601, 7969, 1782, 7600, 8641, 4562, 947, 4311, 7290, 5448, 1258, 5350, 5935, 3027, 875, 2963, 5096, 3782, 882, 4123, 4658, 2393, 775, 2354, 4176, 3239, 784, 2404, 2631, 1429, 703, 1367, 2244, 1759, 550, 953, 1024, 789, 653, 816, 885, 784, 525, 542, 657, 691, 608, 657, 739, 639, 606, 609, 621, 616, 615, 610, 653, 585, 529, 589, 665, 664, 491, 522, 637, 524, 522, 521, 539, 574, 494, 459, 489, 499, 518, 541, 544, 465, 460, 520, 580, 564, 537, 571, 637, 581, 531, 604, 619, 585, 571, 617, 591, 530, 589, 623, 586, 500, 632, 749, 675, 515, 623, 723, 661, 576, 653, 814, 755, 566, 644, 792, 748, 624, 555, 660, 726, 582, 582, 676, 678, 617, 553, 562, 570, 573, 549, 598, 593, 551, 513, 528, 599, 493, 565, 601, 616, 609, 550, 553, 642, 606, 553, 536, 578, 629, 663, 639, 640, 689, 565, 532, 596, 654, 696, 666, 584, 624, 647, 599, 498, 526, 699, 572, 611, 635, 673, 617, 547, 619, 681, 668, 593, 689, 746, 658, 608, 611, 556, 626, 673, 659, 652, 647, 687, 591, 575, 528, 639, 627, 574, 631, 649, 597, 690, 618, 638, 689, 541, 697, 734, 633, 727, 663, 616, 604, 584, 749, 732, 648, 678, 670, 690, 600, 589, 664, 689, 659, 532, 516, 609, 604, 613, 571, 564, 613, 557, 581, 580, 618, 631, 649, 639, 650, 556, 647, 657, 623, 664, 673, 593, 553, 581, 675, 677, 608, 644, 692, 649, 573, 553, 538, 530, 568, 606, 615, 612, 527, 554, 565, 541, 517, 574, 624, 604, 597, 612, 555, 553, 590, 661, 640, 617, 613, 672, 538, 518, 625, 640, 554, 615, 725, 588, 472, 519, 656, 639, 566, 528, 576, 511, 508, 606, 649, 575, 624, 632, 562, 504, 570, 621, 636, 635, 661, 586, 516, 526, 558, 565, 589, 662, 713, 529, 471, 570, 588, 614, 623, 605, 595, 565, 535, 504, 550, 575, 574, 556, 501, 534, 572, 679, 537, 547, 650, 596, 493, 635, 754, 696, 521, 432, 590, 596, 504, 566, 725, 580, 549, 541, 600, 593, 598, 635, 620, 517, 470, 564, 652, 558, 523, 572, 614, 542, 627, 536, 498, 517, 592, 543, 537, 536, 662, 621, 509, 523, 583, 585, 501, 558, 588, 707, 720, 634, 576, 596, 608, 482, 546, 599, 550, 513, 503, 506, 491, 516, 612, 560, 549, 568, 551, 589, 521, 555, 546, 547, 528, 495, 526, 569, 592, 701, 649, 566, 599, 648, 629, 555, 705, 621, 518, 526, 678, 607, 546, 665, 671, 679, 596, 671, 737, 645, 573, 691, 742, 616, 673, 726, 707, 546, 515, 590, 628, 590, 605, 638, 609, 542, 555, 640, 600, 544, 671, 668, 622, 570, 625, 729, 671, 592, 557, 454, 488, 566, 608, 615, 599, 601, 506, 570, 584, 592, 641, 548, 601, 618, 576, 588, 637, 574, 622, 612, 597, 516, 511, 477, 521, 577, 598, 508, 493, 570, 575, 612, 578, 596, 616, 684, 615, 531, 519, 565, 572, 501, 551, 605, 561, 489, 450, 491, 535, 466, 538, 567, 500, 504, 405, 418, 512, 511, 415, 474, 544, 497, 454, 475, 469, 442, 492, 483, 457, 435, 414, 471, 498, 471, 423, 489, 502, 529, 419, 427, 494, 564, 522, 453, 525, 462, 450, 369, 380, 380, 454, 458, 397, 442, 448, 369, 358, 397, 405, 409, 408, 395, 381, 436, 419, 452, 452, 388, 427, 471, 399, 437, 503, 444, 438, 442, 447]"
0.3974771201610565,-0.023568421602249146,-0.07984880357980728,-0.02787194401025772,-0.10559187084436417,-0.26406532526016235,-0.01670994609594345,-1.4856127500534058,1.7316341400146484,18.75,-0.42703425884246826,1.123666763305664,17.75,-0.1509455442428589,0.6142616271972656,17.25,0.12342655658721924,0.18782615661621094,17.5,0.1820775270462036,0.13246536254882812,27.5,"[542, 492, 487, 550, 546, 556, 487, 487, 608, 591, 546, 563, 630, 655, 564, 490, 522, 577, 615, 527, 475, 495, 485, 456, 515, 569, 567, 551, 444, 492, 497, 472, 562, 536, 498, 522, 556, 538, 532, 515, 612, 540, 561, 568, 572, 518, 551, 636, 591, 549, 541, 600, 587, 570, 582, 583, 541, 570, 596, 542, 555, 619, 674, 561, 547, 516, 474, 603, 542, 481, 560, 502, 590, 604, 576, 611, 595, 568, 557, 547, 557, 495, 522, 519, 572, 574, 562, 632, 582, 586, 524, 504, 498, 538, 541, 510, 499, 432, 470, 469, 484, 547, 481, 472, 530, 471, 464, 449, 528, 582, 548, 518, 580, 584, 482, 417, 456, 479, 529, 572, 583, 569, 522, 610, 629, 566, 567, 601, 501, 449, 452, 546, 570, 531, 518, 505, 393, 453, 509, 501, 452, 475, 513, 471, 518, 595, 548, 478, 565, 646, 644, 571, 577, 538, 590, 598, 548, 589, 539, 578, 512, 523, 435, 491, 520, 496, 449, 434, 558, 600, 495, 450, 490, 472, 490, 517, 560, 580, 506, 392, 522, 471, 443, 564, 560, 560, 521, 537, 586, 503, 478, 526, 554, 558, 553, 577, 598, 567, 502, 521, 533, 601, 654, 577, 521, 526, 508, 523, 565, 591, 584, 563, 546, 530, 523, 536, 593, 640, 661, 677, 641, 621, 636, 572, 510, 507, 571, 672, 562, 457, 539, 565, 586, 615, 607, 641, 603, 577, 594, 579, 564, 546, 488, 469, 557, 513, 506, 573, 556, 531, 496, 541, 570, 579, 540, 480, 513, 507, 495, 569, 509, 502, 536, 534, 520, 483, 580, 584, 496, 550, 585, 596, 523, 485, 532, 551, 447, 502, 488, 491, 599, 492, 471, 553, 543, 578, 544, 558, 507, 495, 579, 593, 591, 603, 698, 662, 613, 487, 617, 627, 639, 636, 532, 654, 649, 489, 623, 588, 562, 628, 603, 671, 548, 543, 531, 468, 450, 581, 585, 607, 502, 522, 556, 520, 548, 512, 588, 568, 602, 563, 527, 535, 591, 543, 510, 592, 635, 608, 749, 630, 526, 559, 632, 703, 581, 567, 713, 620, 491, 543, 584, 645, 576, 543, 610, 603, 572, 523, 546, 627, 666, 632, 586, 649, 667, 593, 624, 675, 665, 612, 560, 614, 658, 599, 593, 669, 657, 570, 548, 663, 684, 600, 614, 662, 580, 520, 581, 628, 583, 561, 574, 621, 593, 555, 643, 624, 602, 534, 536, 682, 696, 633, 640, 710, 683, 537, 563, 671, 879, 758, 723, 832, 757, 806, 972, 961, 1614, 1347, 2170, 1658, 1421, 1026, 2900, 3262, 1683, 2832, 3774, 2351, 2095, 1443, 4384, 4722, 2078, 4166, 4707, 2690, 1739, 1848, 4554, 4495, 1885, 4442, 5242, 2980, 1205, 2089, 4657, 4453, 3964, 6507, 10742, 7370, 2545, 3962, 10792, 11454, 6466, 11100, 17390, 11241, 3378, 7656, 19024, 19501, 3834, 8702, 11792, 6912, 1822, 6610, 13849, 13000, 1255, 3551, 3745, 1920, 845, 3062, 4902, 3715, 628, 806, 797, 604, 606, 877, 830, 635, 623, 627, 686, 620, 530, 635, 667, 652, 592, 574, 605, 615, 633, 704, 680, 615, 581, 604, 666, 656, 617, 688, 766, 701, 525, 577, 611, 580, 600, 632, 621, 580, 613, 653, 641, 517, 650, 689, 548, 589, 627, 559, 611, 611, 563, 580, 509, 556, 617, 603, 656, 566, 485, 497, 528, 657, 623, 592, 607, 572, 527, 476, 579, 633, 623, 721, 649, 574, 577, 557, 563, 545, 621, 716, 561, 568, 634, 657, 613, 459, 566, 615, 563, 613, 581, 643, 705, 571, 591, 596, 652, 584, 571, 646, 649, 644, 727, 726, 714, 634, 698, 752, 683, 668, 882, 706, 701, 729, 661, 751, 659, 746, 870, 691, 838, 808, 699, 776, 633, 768, 661, 609, 799, 730, 566, 571, 612, 706, 717, 548, 841, 831, 601, 636, 678, 766, 561, 652, 828, 736, 544, 591, 697, 667, 593, 631, 700, 739, 681, 617, 666, 689, 527, 624, 686, 627, 583, 574, 607, 653, 507, 516, 588, 550, 567, 487, 498, 588, 584, 582, 583, 520, 541, 628, 585, 534, 590, 597, 561, 617, 527, 592, 624, 569, 632, 665, 588, 628, 613, 664, 597, 570, 658, 659, 574, 538, 552, 551, 543, 568, 632, 627, 561, 610, 566, 515, 561, 630, 723, 667, 645, 688, 678, 582, 634, 728, 734, 686, 621, 598, 653, 645, 611, 711, 859, 648, 625, 636, 677, 704, 557, 814, 1042, 725, 711, 772, 698, 638, 733, 1082, 1177, 790, 710, 962, 875, 658, 835, 1202, 942, 746, 632, 813, 709, 602, 748, 976, 715, 617, 661, 726, 709, 622, 677, 846, 688, 688, 714, 686, 626, 710, 663, 596, 732, 649, 737, 828, 686, 718, 693, 591, 655, 598, 799, 911, 637, 691, 704, 554, 722, 704, 727, 752, 601, 730, 726, 532, 579, 618, 562, 609, 592, 664, 704, 575, 560, 540, 502, 487, 578, 595, 570, 534, 536, 570, 590, 593, 547, 563, 609, 578, 569, 516, 572, 528, 537, 541, 479, 536, 564, 519, 582, 553, 605, 612, 588, 590, 680, 575, 586, 583, 634, 605, 615, 702, 596, 529, 502, 603, 536, 549, 568, 590, 574, 590, 540, 545, 522, 527, 588, 578, 617, 626, 563, 560, 583, 642, 627, 653, 564, 568, 621, 575, 561, 633, 693, 722, 578, 530, 596, 586, 551, 634, 759, 778, 728, 737, 624, 577, 620, 626, 686, 722, 684, 709, 582, 543, 560, 517, 496, 537, 567, 622, 636, 603, 583, 611, 712, 656, 787, 904, 1094, 824, 608, 694, 1021, 1161, 846, 1250, 1598, 1068, 615, 828, 1680, 1681, 917, 970, 1334, 1078, 660, 885, 1570, 1642, 690, 689, 890, 758, 643, 779, 1061, 1053, 492, 622, 664, 570, 569, 619, 728, 681, 554, 527, 530, 589, 586, 518, 517, 533, 494, 473, 498, 522, 542, 498, 469, 519, 571, 551, 540, 575, 553, 454, 529, 598, 435, 529, 524, 474, 472, 499, 525, 472, 475, 492, 463, 489, 495, 499, 480, 450, 471, 479, 432, 513, 580, 425, 416, 533, 485, 488, 433, 437, 506, 459, 390, 439, 480, 442, 403, 455, 457, 436, 455, 468, 462, 426, 388, 433, 490, 426, 421, 477, 474, 409, 359, 424, 401, 365, 392, 468, 376, 377, 389, 390, 308, 424, 446, 394]"
