posz,velx,vely,velz,accx,accy,accz,p1x,p1y,p1z,p2x,p2y,p2z,p3x,p3y,p3z,p4x,p4y,p4z,p5x,p5y,p5z,heatmap
-0.010873645544052124,-0.33194947242736816,0.1856503039598465,-0.4747503697872162,-0.34200793504714966,0.20026525855064392,-0.3959333300590515,0.3163635730743408,0.9454250335693359,20.0,0.4306614398956299,0.6770610809326172,20.0,0.6289303302764893,0.5823612213134766,18.25,0.6493866443634033,0.5837917327880859,23.0,0.7435142993927002,0.2933979034423828,22.0,"[684, 658, 661, 711, 741, 712, 665, 659, 690, 737, 590, 601, 835, 850, 699, 604, 620, 671, 593, 580, 627, 661, 641, 578, 592, 564, 568, 605, 564, 560, 507, 523, 573, 567, 523, 517, 509, 548, 496, 469, 608, 619, 557, 555, 558, 485, 453, 484, 543, 444, 428, 511, 460, 489, 522, 503, 619, 592, 504, 510, 485, 571, 612, 575, 512, 554, 523, 528, 481, 509, 485, 445, 590, 558, 537, 517, 514, 497, 522, 510, 559, 482, 481, 496, 486, 548, 564, 609, 531, 513, 540, 657, 621, 564, 604, 625, 496, 498, 579, 649, 533, 509, 523, 565, 540, 561, 517, 528, 506, 604, 578, 490, 555, 523, 557, 650, 551, 597, 665, 555, 518, 506, 543, 614, 590, 503, 642, 650, 571, 553, 487, 527, 535, 492, 549, 608, 581, 575, 446, 471, 497, 567, 599, 562, 521, 541, 425, 457, 489, 541, 568, 518, 561, 561, 469, 459, 563, 587, 537, 507, 479, 486, 468, 486, 556, 550, 506, 540, 590, 601, 546, 536, 504, 552, 576, 550, 590, 546, 485, 641, 679, 545, 508, 556, 610, 594, 557, 687, 683, 605, 606, 608, 597, 559, 588, 631, 673, 586, 653, 676, 600, 589, 595, 606, 619, 627, 678, 681, 656, 724, 643, 551, 592, 733, 711, 607, 569, 631, 554, 425, 545, 570, 611, 609, 531, 549, 541, 510, 508, 485, 539, 609, 590, 521, 529, 544, 550, 485, 462, 604, 566, 552, 525, 528, 576, 555, 499, 568, 554, 678, 680, 536, 538, 601, 640, 518, 606, 548, 583, 614, 559, 537, 484, 518, 559, 452, 546, 626, 631, 536, 460, 580, 630, 615, 696, 654, 589, 671, 701, 676, 580, 675, 701, 608, 566, 637, 659, 627, 579, 510, 493, 503, 550, 496, 476, 523, 439, 474, 545, 539, 521, 497, 560, 485, 485, 536, 631, 665, 556, 625, 593, 484, 533, 581, 663, 643, 542, 555, 616, 578, 531, 503, 572, 597, 533, 580, 574, 564, 616, 593, 581, 583, 619, 592, 530, 593, 518, 554, 624, 619, 592, 565, 599, 598, 499, 633, 643, 540, 531, 475, 557, 593, 505, 536, 565, 525, 525, 589, 666, 631, 493, 526, 583, 560, 576, 669, 683, 647, 671, 597, 641, 603, 590, 593, 647, 709, 725, 694, 660, 742, 631, 683, 705, 574, 656, 664, 636, 596, 604, 733, 699, 556, 590, 691, 702, 627, 635, 695, 740, 640, 663, 660, 731, 667, 663, 743, 755, 633, 578, 610, 639, 648, 666, 722, 679, 579, 537, 596, 680, 633, 549, 563, 617, 618, 574, 560, 703, 624, 517, 648, 633, 671, 571, 598, 767, 726, 629, 663, 704, 739, 591, 651, 737, 659, 606, 642, 703, 646, 642, 584, 632, 730, 611, 610, 704, 720, 933, 1220, 1306, 1326, 822, 1455, 2613, 2268, 1930, 2325, 3012, 3181, 1664, 3231, 6838, 6180, 2209, 2319, 3337, 3237, 1935, 2863, 6813, 6483, 1228, 1356, 1924, 1597, 1025, 1348, 3058, 2989, 1131, 677, 1118, 999, 792, 859, 895, 1280, 2708, 3428, 4103, 2518, 1637, 3789, 7581, 7009, 3842, 5904, 7256, 4601, 2498, 6721, 13580, 12210, 2478, 4809, 5987, 3940, 1798, 5334, 10607, 9289, 1065, 2446, 3108, 2067, 997, 2586, 4983, 4341, 1321, 1234, 1775, 1218, 875, 1328, 2804, 2943, 1461, 1486, 1725, 1116, 760, 1417, 2714, 2725, 876, 1086, 1303, 987, 644, 994, 1864, 1763, 675, 786, 908, 727, 596, 747, 1050, 1013, 788, 1017, 1142, 748, 637, 924, 1473, 1411, 762, 756, 946, 857, 700, 695, 890, 1004, 771, 668, 698, 673, 649, 585, 584, 816, 810, 717, 661, 677, 671, 582, 586, 737, 793, 650, 577, 600, 692, 680, 664, 758, 663, 665, 652, 633, 616, 640, 675, 615, 599, 739, 717, 665, 611, 671, 760, 633, 1150, 2000, 1883, 1068, 941, 1614, 1829, 1196, 1340, 2240, 2275, 1250, 1036, 1601, 1684, 1260, 1179, 1750, 2083, 1393, 1014, 1883, 1769, 1224, 867, 1168, 1270, 967, 732, 1322, 1382, 906, 633, 679, 653, 654, 598, 718, 764, 578, 672, 797, 725, 677, 582, 678, 690, 545, 651, 736, 678, 585, 577, 568, 597, 561, 648, 739, 665, 595, 557, 570, 612, 599, 555, 691, 739, 616, 524, 582, 588, 591, 748, 728, 602, 560, 655, 734, 559, 640, 839, 727, 638, 584, 735, 886, 641, 662, 798, 732, 623, 585, 729, 777, 703, 740, 772, 677, 724, 692, 641, 563, 572, 755, 623, 635, 696, 704, 694, 557, 498, 573, 630, 646, 717, 737, 762, 813, 610, 611, 716, 681, 665, 660, 592, 624, 625, 667, 805, 735, 603, 699, 656, 636, 620, 649, 873, 768, 727, 741, 754, 634, 619, 743, 794, 675, 650, 720, 784, 619, 666, 798, 664, 612, 643, 658, 532, 546, 590, 616, 644, 608, 610, 598, 434, 580, 601, 540, 639, 618, 606, 575, 571, 633, 627, 617, 632, 606, 678, 656, 674, 615, 663, 726, 656, 568, 584, 708, 729, 623, 635, 725, 606, 588, 566, 676, 713, 595, 606, 664, 618, 576, 560, 664, 705, 612, 639, 677, 700, 661, 518, 559, 643, 578, 613, 655, 649, 628, 580, 540, 620, 554, 514, 589, 629, 647, 633, 693, 643, 627, 730, 639, 663, 535, 543, 632, 609, 660, 730, 712, 779, 642, 539, 555, 625, 573, 529, 677, 721, 760, 655, 650, 587, 682, 732, 636, 644, 687, 567, 602, 594, 683, 802, 639, 577, 637, 596, 621, 624, 669, 731, 537, 592, 585, 560, 646, 615, 583, 597, 567, 585, 483, 617, 650, 554, 558, 615, 671, 590, 555, 625, 556, 550, 592, 660, 684, 509, 572, 603, 469, 502, 619, 706, 638, 526, 469, 468, 470, 581, 680, 612, 516, 533, 552, 497, 520, 529, 582, 565, 527, 594, 587, 504, 515, 547, 564, 571, 525, 546, 519, 428, 482, 519, 469, 535, 531, 603, 473, 458, 531, 572, 505, 441, 563, 485, 467, 555, 576, 491, 532, 536, 488, 480, 547, 524, 513, 472, 516, 619, 535, 475, 492, 446, 450, 583, 556, 494, 485, 519, 430, 505, 566, 528, 451, 482, 552, 487, 449, 443, 444, 478, 421, 451, 449, 488, 460, 459, 469, 476, 486, 464, 443, 417, 480, 470, 386, 423, 454, 436, 383, 475, 402, 469, 463, 419, 493, 469, 447]"
-0.010873645544052124,-0.33194947242736816,0.1856503039598465,-0.4747503697872162,-0.34200793504714966,0.20026525855064392,-0.3959333300590515,0.44081807136535645,0.7401466369628906,25.0,0.4627048969268799,0.73699951171875,19.25,0.4772961139678955,0.8514404296875,17.0,0.4936039447784424,0.5401611328125,23.0,0.49646496772766113,0.41298866271972656,15.75,"[551, 645, 704, 689, 662, 692, 706, 644, 567, 640, 707, 676, 711, 733, 713, 602, 513, 565, 574, 504, 545, 624, 621, 530, 441, 372, 376, 427, 460, 390, 440, 447, 440, 427, 413, 505, 457, 400, 488, 444, 534, 446, 396, 451, 532, 536, 503, 527, 508, 489, 458, 467, 486, 487, 542, 546, 510, 478, 450, 490, 567, 532, 502, 534, 523, 509, 577, 546, 553, 519, 441, 533, 595, 527, 509, 481, 555, 560, 484, 578, 566, 512, 504, 469, 487, 555, 538, 536, 555, 518, 580, 520, 482, 591, 502, 505, 579, 533, 574, 604, 603, 622, 627, 607, 591, 579, 570, 603, 551, 554, 634, 613, 607, 598, 495, 592, 582, 543, 577, 579, 511, 584, 541, 568, 561, 557, 570, 479, 432, 556, 552, 473, 521, 616, 526, 389, 396, 460, 559, 563, 475, 521, 660, 589, 534, 495, 446, 542, 522, 500, 578, 534, 512, 527, 552, 573, 539, 544, 538, 506, 522, 490, 491, 559, 563, 437, 475, 506, 575, 625, 602, 586, 613, 543, 534, 541, 586, 688, 680, 580, 617, 636, 701, 627, 597, 671, 678, 572, 608, 703, 635, 567, 525, 553, 637, 511, 516, 603, 587, 575, 538, 606, 565, 522, 501, 515, 546, 550, 533, 654, 601, 582, 590, 615, 579, 511, 554, 561, 639, 612, 526, 646, 637, 524, 499, 553, 548, 511, 518, 559, 521, 467, 592, 675, 563, 479, 504, 504, 551, 525, 566, 602, 550, 572, 536, 485, 506, 482, 534, 545, 594, 579, 522, 487, 520, 529, 460, 592, 655, 552, 524, 544, 524, 502, 520, 491, 582, 551, 561, 419, 523, 634, 617, 534, 502, 561, 616, 553, 544, 669, 461, 446, 425, 530, 549, 419, 560, 620, 424, 434, 491, 475, 493, 467, 505, 508, 505, 551, 593, 453, 534, 540, 523, 545, 603, 631, 584, 508, 559, 603, 617, 625, 576, 570, 557, 539, 568, 463, 543, 530, 582, 561, 445, 522, 593, 548, 513, 520, 633, 646, 523, 541, 629, 671, 535, 514, 621, 563, 688, 661, 562, 594, 678, 675, 556, 535, 605, 596, 509, 542, 552, 590, 562, 634, 529, 418, 472, 535, 555, 548, 570, 584, 581, 538, 520, 578, 569, 535, 648, 627, 566, 531, 528, 659, 558, 499, 688, 695, 585, 589, 680, 638, 565, 611, 638, 622, 524, 575, 673, 615, 622, 596, 516, 592, 591, 569, 541, 565, 656, 568, 624, 611, 618, 617, 514, 479, 531, 588, 549, 549, 556, 482, 528, 495, 517, 489, 540, 635, 612, 539, 575, 651, 543, 541, 509, 614, 666, 585, 703, 788, 647, 564, 554, 617, 621, 577, 736, 835, 705, 613, 524, 570, 565, 632, 622, 628, 654, 578, 535, 688, 742, 749, 613, 819, 990, 836, 1320, 2107, 2382, 2270, 1143, 2860, 5217, 4388, 2994, 3845, 4609, 4645, 2426, 5290, 10396, 9189, 2920, 3053, 3830, 4084, 2578, 4024, 8563, 7992, 1516, 1224, 1607, 1719, 1342, 1342, 3366, 3445, 1416, 1993, 2439, 1945, 989, 2283, 4666, 4204, 1920, 3131, 4065, 3289, 1198, 3604, 6869, 5969, 1318, 2065, 2599, 2233, 942, 2142, 3866, 3318, 1423, 1271, 1169, 920, 736, 1004, 1589, 1722, 2290, 2226, 1225, 782, 872, 1201, 1153, 1307, 2500, 3287, 1884, 917, 883, 2151, 2620, 1209, 2072, 2222, 1231, 1338, 837, 1739, 2510, 1797, 1659, 1292, 1951, 1647, 928, 1194, 2841, 3052, 1280, 1338, 1983, 1221, 781, 1038, 2797, 3053, 892, 1131, 1323, 819, 670, 864, 1651, 1651, 666, 691, 634, 686, 694, 641, 831, 832, 664, 681, 599, 687, 622, 566, 761, 737, 718, 631, 512, 587, 674, 617, 620, 679, 623, 581, 601, 628, 633, 650, 575, 576, 639, 554, 540, 589, 584, 609, 587, 622, 981, 1251, 1099, 814, 758, 1197, 1312, 956, 1290, 2207, 2001, 997, 1091, 2128, 2452, 1498, 959, 1925, 1763, 785, 884, 1510, 1931, 1340, 638, 1028, 1046, 637, 805, 838, 977, 917, 664, 709, 643, 602, 724, 661, 773, 793, 575, 621, 619, 596, 579, 681, 729, 669, 448, 603, 667, 596, 511, 672, 602, 521, 646, 778, 810, 646, 655, 861, 765, 638, 815, 783, 772, 803, 806, 773, 743, 683, 608, 622, 775, 793, 664, 714, 725, 647, 469, 582, 700, 659, 579, 693, 761, 638, 611, 614, 765, 704, 599, 642, 767, 749, 640, 655, 737, 723, 684, 647, 700, 724, 739, 641, 679, 730, 650, 668, 559, 751, 809, 703, 768, 760, 627, 712, 766, 823, 606, 642, 660, 692, 636, 606, 704, 679, 535, 723, 711, 644, 526, 679, 761, 541, 593, 645, 685, 755, 628, 655, 833, 764, 606, 571, 666, 703, 663, 737, 788, 795, 674, 637, 650, 609, 680, 771, 746, 693, 520, 633, 822, 705, 602, 710, 876, 749, 659, 739, 899, 849, 570, 760, 876, 832, 736, 786, 922, 758, 495, 730, 842, 781, 713, 792, 643, 469, 601, 553, 652, 701, 688, 714, 669, 575, 555, 519, 660, 697, 675, 624, 634, 636, 602, 520, 523, 662, 654, 654, 657, 653, 615, 583, 571, 655, 581, 576, 649, 648, 626, 655, 692, 671, 603, 554, 631, 647, 594, 525, 651, 672, 661, 604, 575, 638, 628, 524, 556, 661, 696, 613, 528, 645, 599, 549, 687, 810, 736, 614, 562, 630, 736, 580, 778, 924, 759, 643, 634, 684, 789, 560, 823, 960, 782, 816, 763, 739, 788, 687, 905, 954, 670, 702, 637, 553, 577, 595, 652, 675, 612, 641, 559, 537, 562, 578, 579, 563, 625, 674, 652, 563, 541, 683, 751, 628, 518, 572, 687, 622, 561, 679, 708, 595, 483, 484, 540, 636, 581, 607, 619, 573, 457, 475, 569, 611, 531, 611, 660, 598, 603, 534, 579, 588, 496, 606, 698, 713, 517, 525, 593, 433, 459, 598, 655, 626, 515, 505, 549, 513, 498, 511, 589, 603, 521, 622, 625, 509, 424, 474, 549, 550, 482, 487, 518, 499, 446, 416, 495, 533, 532, 534, 488, 536, 471, 471, 565, 513, 485, 498, 548, 505, 411, 503, 566, 557, 428, 476, 550, 492, 370, 427, 513, 517, 408, 435, 450, 429, 458, 457, 433, 397, 489, 411, 441, 473, 482, 493, 426, 456, 473, 409, 488, 491, 420, 372, 444, 531, 447, 487, 538, 498, 399, 398, 421, 423]"
-0.3545704185962677,-0.26628199219703674,0.2402702420949936,-0.9856657385826111,0.07308591157197952,0.0005047507584095001,-0.7789472937583923,0.39550256729125977,0.7807731628417969,20.0,0.4256863594055176,0.64544677734375,22.5,0.442995548248291,0.6853580474853516,15.75,0.4661698341369629,0.6968021392822266,16.5,0.5717415809631348,0.28939247131347656,18.25,"[518, 621, 651, 573, 593, 570, 652, 622, 550, 688, 692, 631, 660, 648, 631, 566, 536, 591, 581, 604, 516, 549, 596, 534, 609, 636, 603, 491, 451, 548, 596, 601, 542, 441, 423, 479, 423, 369, 510, 605, 614, 551, 437, 523, 584, 465, 460, 552, 511, 529, 559, 578, 560, 520, 493, 507, 487, 464, 552, 502, 431, 478, 465, 513, 526, 485, 566, 567, 517, 500, 557, 598, 543, 480, 515, 602, 592, 572, 538, 594, 499, 494, 535, 600, 561, 491, 480, 468, 535, 599, 582, 542, 583, 535, 567, 582, 514, 587, 562, 466, 556, 557, 551, 551, 469, 452, 530, 475, 513, 537, 516, 525, 431, 457, 488, 509, 552, 542, 587, 539, 569, 538, 498, 547, 622, 581, 595, 605, 485, 549, 458, 437, 576, 585, 470, 428, 561, 590, 504, 526, 576, 578, 525, 541, 501, 592, 642, 489, 521, 647, 623, 552, 599, 613, 601, 513, 632, 633, 618, 571, 567, 534, 524, 514, 547, 489, 453, 545, 517, 462, 436, 517, 569, 466, 464, 586, 576, 528, 530, 661, 725, 541, 480, 634, 572, 561, 591, 694, 676, 561, 527, 628, 632, 641, 605, 615, 634, 575, 451, 585, 621, 507, 534, 590, 638, 591, 546, 635, 608, 562, 564, 583, 470, 447, 515, 627, 541, 469, 462, 542, 513, 494, 541, 571, 506, 553, 560, 560, 541, 601, 576, 468, 475, 494, 524, 517, 500, 560, 569, 476, 551, 514, 499, 454, 447, 502, 551, 542, 521, 528, 524, 461, 426, 495, 593, 603, 521, 558, 544, 553, 502, 468, 520, 543, 537, 567, 548, 512, 535, 631, 568, 440, 558, 622, 640, 601, 594, 691, 668, 554, 584, 592, 616, 596, 566, 601, 666, 641, 533, 559, 539, 483, 497, 511, 528, 556, 518, 662, 605, 478, 560, 631, 578, 474, 594, 645, 617, 547, 580, 749, 721, 565, 495, 598, 626, 649, 567, 603, 622, 567, 529, 520, 690, 721, 578, 490, 554, 566, 538, 519, 630, 669, 625, 534, 539, 573, 544, 602, 634, 617, 601, 566, 678, 617, 642, 704, 653, 635, 641, 645, 719, 685, 602, 574, 596, 626, 629, 585, 531, 665, 575, 521, 689, 691, 552, 566, 594, 629, 579, 598, 576, 589, 568, 571, 563, 536, 622, 659, 646, 715, 583, 597, 624, 590, 610, 596, 619, 667, 590, 626, 558, 552, 697, 668, 597, 676, 684, 612, 552, 563, 693, 667, 634, 659, 627, 691, 697, 646, 573, 652, 831, 732, 745, 991, 867, 632, 717, 773, 875, 726, 826, 1050, 929, 728, 710, 713, 735, 707, 770, 815, 848, 816, 659, 624, 557, 615, 654, 613, 627, 620, 639, 599, 573, 568, 482, 533, 655, 654, 587, 617, 580, 516, 479, 544, 580, 533, 732, 971, 904, 597, 622, 760, 942, 835, 783, 2080, 2098, 1098, 626, 1733, 2636, 1904, 723, 2420, 2592, 1817, 598, 2743, 4338, 3183, 888, 2130, 2195, 1895, 649, 2965, 4753, 3539, 1998, 2983, 3386, 2915, 1521, 3854, 7256, 6254, 3101, 3793, 4978, 4205, 2276, 4759, 10362, 9585, 1486, 3825, 4253, 3066, 1631, 3914, 8333, 7215, 1925, 4585, 3730, 1626, 905, 3395, 5293, 3327, 2557, 3780, 3100, 1502, 972, 2363, 3203, 2316, 2172, 2411, 2902, 2164, 1156, 1376, 2923, 3238, 1622, 1447, 2902, 2548, 1076, 1526, 3415, 3577, 1251, 1254, 1831, 1730, 801, 1670, 2702, 2358, 1136, 1455, 1251, 960, 762, 1358, 1802, 1383, 1281, 1174, 821, 783, 834, 1080, 958, 884, 1055, 768, 857, 881, 744, 663, 1093, 1297, 744, 1784, 1807, 1033, 714, 1364, 2264, 1715, 1333, 3269, 2943, 1174, 920, 2078, 3147, 2009, 2487, 5090, 4249, 1393, 1233, 3013, 4424, 2675, 2814, 5577, 4665, 1537, 1210, 3271, 4741, 2867, 1573, 3227, 2892, 1251, 747, 2104, 3074, 2018, 1129, 1806, 1858, 1142, 879, 1918, 2206, 1488, 1233, 1688, 1869, 1090, 1070, 1981, 1837, 1216, 693, 740, 720, 645, 868, 972, 892, 710, 689, 701, 573, 783, 647, 714, 867, 670, 824, 881, 645, 715, 719, 960, 1052, 697, 629, 719, 695, 562, 643, 775, 699, 552, 553, 620, 630, 569, 544, 624, 578, 412, 634, 681, 565, 667, 691, 633, 634, 565, 703, 644, 629, 614, 631, 689, 712, 688, 727, 663, 591, 615, 625, 737, 711, 703, 646, 610, 545, 522, 503, 609, 583, 586, 501, 586, 637, 515, 460, 516, 543, 569, 623, 615, 633, 608, 610, 531, 546, 672, 649, 620, 665, 672, 612, 565, 626, 652, 577, 518, 536, 609, 514, 510, 584, 565, 580, 576, 596, 612, 536, 563, 620, 597, 624, 628, 647, 552, 565, 662, 783, 716, 643, 651, 622, 591, 527, 602, 718, 693, 710, 750, 760, 720, 652, 667, 629, 654, 664, 609, 681, 686, 656, 678, 626, 652, 751, 696, 638, 702, 803, 803, 843, 735, 747, 739, 668, 686, 929, 933, 776, 670, 711, 598, 584, 655, 705, 730, 700, 677, 681, 593, 500, 657, 729, 597, 583, 641, 704, 705, 587, 719, 747, 600, 549, 604, 634, 681, 589, 614, 679, 596, 541, 571, 657, 646, 632, 625, 570, 522, 541, 588, 564, 657, 659, 527, 503, 608, 584, 538, 726, 771, 690, 527, 561, 608, 595, 627, 704, 679, 630, 546, 624, 665, 672, 700, 722, 659, 600, 576, 657, 567, 724, 800, 659, 725, 687, 528, 606, 574, 647, 625, 646, 750, 703, 632, 618, 724, 570, 535, 634, 636, 685, 682, 587, 651, 683, 680, 645, 541, 607, 643, 575, 648, 812, 821, 636, 565, 678, 636, 627, 650, 774, 767, 638, 605, 624, 688, 620, 646, 777, 703, 610, 570, 541, 573, 572, 538, 549, 623, 584, 507, 501, 538, 549, 551, 553, 604, 481, 523, 586, 547, 558, 574, 610, 624, 586, 546, 614, 596, 546, 503, 675, 699, 633, 586, 577, 592, 601, 570, 596, 664, 544, 524, 522, 470, 489, 549, 549, 586, 484, 513, 555, 477, 420, 513, 529, 477, 416, 412, 540, 564, 439, 496, 516, 432, 395, 493, 530, 539, 489, 442, 474, 426, 400, 424, 438, 440, 366, 406, 461, 411, 475, 402, 399, 414, 394, 393, 456, 489, 506, 480, 353, 407, 406, 438, 477, 472, 526, 519, 440, 409, 412, 413, 400, 452, 404, 460, 517, 472, 425, 405, 432, 422]"
-0.40359628200531006,-0.2915222942829132,0.23062348365783691,-1.057949423789978,0.07811129093170166,-0.03277098387479782,-0.8328450322151184,0.4169313907623291,0.7580280303955078,16.25,0.41793274879455566,0.7634639739990234,19.75,0.419506311416626,0.8119583129882812,18.75,0.46370911598205566,0.7404327392578125,20.5,0.5775778293609619,0.5948066711425781,17.5,"[575, 568, 618, 590, 540, 580, 619, 578, 560, 556, 525, 530, 603, 710, 633, 537, 543, 512, 508, 455, 514, 590, 568, 530, 560, 535, 533, 535, 537, 514, 516, 557, 534, 491, 463, 532, 512, 512, 522, 551, 576, 512, 461, 498, 549, 569, 514, 506, 501, 494, 453, 403, 475, 529, 461, 422, 606, 619, 546, 584, 554, 535, 477, 545, 475, 454, 489, 506, 472, 508, 433, 430, 559, 558, 588, 588, 600, 683, 563, 486, 692, 634, 510, 540, 568, 545, 505, 573, 596, 558, 588, 549, 543, 569, 583, 546, 440, 496, 571, 513, 471, 606, 626, 512, 463, 516, 639, 680, 536, 515, 555, 509, 512, 542, 562, 652, 592, 478, 579, 528, 667, 674, 529, 491, 602, 633, 627, 592, 569, 585, 502, 516, 539, 608, 517, 455, 559, 517, 563, 600, 487, 529, 574, 537, 574, 566, 632, 647, 556, 600, 626, 624, 516, 556, 543, 604, 682, 601, 516, 574, 569, 626, 650, 601, 645, 619, 477, 581, 649, 668, 706, 694, 631, 611, 568, 648, 631, 619, 652, 648, 578, 525, 655, 651, 558, 603, 597, 625, 560, 535, 560, 575, 441, 554, 547, 526, 598, 508, 503, 495, 512, 543, 544, 572, 569, 533, 499, 506, 572, 595, 625, 595, 550, 530, 486, 553, 544, 506, 478, 490, 438, 453, 487, 526, 622, 580, 557, 557, 475, 479, 517, 587, 629, 561, 595, 677, 582, 514, 544, 588, 664, 609, 529, 583, 620, 601, 561, 542, 643, 836, 655, 510, 577, 669, 674, 514, 684, 750, 619, 555, 645, 540, 554, 540, 600, 571, 539, 569, 588, 531, 525, 575, 628, 500, 554, 582, 538, 579, 539, 617, 567, 464, 456, 510, 543, 556, 542, 541, 573, 556, 505, 489, 567, 551, 474, 537, 544, 607, 535, 444, 585, 669, 596, 503, 523, 575, 555, 488, 537, 675, 607, 510, 590, 626, 600, 528, 550, 586, 564, 563, 601, 622, 547, 514, 551, 589, 563, 542, 591, 553, 530, 524, 526, 540, 625, 720, 643, 672, 711, 631, 624, 665, 727, 716, 665, 793, 785, 610, 620, 748, 766, 673, 661, 680, 631, 588, 615, 627, 643, 659, 671, 721, 615, 521, 591, 638, 632, 629, 579, 635, 577, 559, 588, 631, 625, 575, 663, 543, 611, 678, 535, 517, 668, 728, 687, 596, 629, 656, 597, 586, 617, 689, 596, 644, 683, 658, 602, 666, 646, 572, 674, 651, 562, 642, 696, 634, 575, 645, 583, 539, 662, 686, 655, 597, 584, 606, 601, 559, 606, 631, 619, 637, 608, 611, 565, 501, 557, 575, 571, 550, 661, 613, 591, 669, 724, 627, 573, 615, 709, 662, 579, 611, 547, 538, 634, 630, 665, 578, 564, 714, 664, 524, 663, 826, 797, 541, 633, 775, 865, 649, 823, 1107, 1007, 678, 961, 1596, 1562, 935, 842, 1406, 1767, 1375, 791, 2740, 2913, 1884, 696, 2524, 4128, 2969, 678, 2800, 3236, 3004, 862, 3698, 6189, 4603, 974, 1687, 2123, 2541, 1019, 2838, 4812, 3676, 687, 826, 929, 1024, 622, 1276, 1609, 1219, 2160, 2675, 3330, 2942, 1666, 3570, 7435, 6755, 3143, 4825, 6056, 4839, 2433, 6028, 12745, 11451, 1249, 4209, 4515, 3267, 1359, 4676, 8916, 7294, 1085, 2000, 1646, 1298, 983, 2135, 3473, 2623, 1031, 1003, 1209, 1064, 847, 1018, 2184, 2271, 1015, 1293, 1504, 1104, 817, 1315, 2381, 2259, 1037, 1143, 1505, 1170, 878, 1073, 2007, 2021, 907, 777, 1073, 958, 635, 910, 1482, 1477, 814, 829, 778, 668, 610, 724, 972, 945, 643, 850, 702, 590, 579, 611, 710, 616, 900, 1153, 923, 697, 703, 767, 866, 637, 1052, 1464, 1107, 688, 674, 900, 1074, 693, 1211, 1779, 1432, 723, 639, 1059, 1356, 917, 966, 1502, 1289, 774, 570, 930, 1220, 819, 949, 1841, 1866, 1082, 698, 1354, 1803, 1225, 1021, 3352, 3873, 2151, 908, 2509, 3561, 2697, 973, 3113, 4006, 2412, 812, 1985, 3127, 2743, 817, 1624, 2158, 1369, 695, 1123, 1491, 1447, 676, 1066, 1375, 977, 687, 943, 956, 950, 732, 694, 699, 716, 665, 621, 599, 771, 738, 760, 616, 596, 644, 545, 454, 596, 643, 739, 549, 472, 558, 511, 507, 546, 732, 799, 725, 663, 631, 696, 654, 612, 637, 694, 699, 619, 559, 573, 614, 645, 543, 635, 612, 531, 600, 690, 554, 552, 563, 616, 555, 506, 621, 679, 625, 518, 570, 644, 598, 576, 552, 623, 701, 676, 616, 661, 680, 643, 512, 655, 716, 589, 659, 636, 643, 685, 604, 575, 632, 671, 629, 643, 676, 673, 592, 635, 613, 609, 747, 760, 682, 600, 575, 654, 613, 628, 762, 780, 633, 568, 626, 633, 526, 490, 588, 595, 486, 506, 614, 584, 627, 588, 701, 632, 591, 643, 630, 563, 513, 639, 686, 624, 687, 710, 644, 614, 600, 621, 719, 674, 675, 620, 656, 690, 598, 629, 766, 712, 732, 604, 574, 652, 614, 780, 584, 674, 658, 502, 537, 583, 603, 601, 562, 589, 663, 580, 550, 679, 707, 632, 670, 748, 773, 664, 662, 691, 743, 680, 673, 695, 830, 806, 685, 680, 692, 704, 645, 623, 591, 657, 693, 678, 628, 592, 664, 678, 612, 667, 722, 655, 613, 636, 627, 663, 669, 656, 619, 566, 606, 647, 752, 677, 692, 729, 647, 564, 588, 702, 742, 611, 583, 698, 553, 542, 620, 716, 689, 553, 610, 750, 559, 548, 681, 701, 668, 536, 648, 681, 569, 577, 652, 721, 593, 569, 571, 587, 519, 541, 562, 605, 581, 650, 622, 532, 546, 620, 623, 594, 619, 575, 523, 528, 593, 573, 670, 682, 643, 618, 563, 670, 751, 698, 592, 627, 495, 542, 541, 549, 632, 656, 655, 592, 485, 526, 565, 549, 532, 532, 579, 519, 525, 613, 613, 557, 566, 516, 520, 555, 466, 582, 626, 540, 539, 498, 498, 533, 446, 458, 501, 498, 487, 427, 538, 556, 503, 471, 395, 409, 440, 521, 525, 487, 420, 507, 491, 391, 414, 560, 592, 491, 519, 497, 578, 597, 482, 449, 555, 622, 564, 622, 520, 497, 516, 472, 535, 559, 437, 457, 404, 387, 436, 418, 452, 481, 483, 494, 481, 437, 471, 458, 477, 485, 389, 362, 438, 415, 387, 406, 436, 454, 385, 382, 394, 395, 420, 403, 410, 416]"
-0.40359628200531006,-0.2915222942829132,0.23062348365783691,-1.057949423789978,0.07811129093170166,-0.03277098387479782,-0.8328450322151184,0.4119246006011963,0.8135318756103516,28.75,0.4624216556549072,0.6644725799560547,24.75,0.5923120975494385,0.37250518798828125,22.5,0.7944433689117432,0.30384063720703125,17.5,0.8070318698883057,0.38580894470214844,16.25,"[485, 645, 739, 624, 509, 625, 743, 646, 570, 598, 591, 615, 617, 605, 652, 584, 550, 572, 546, 481, 542, 573, 538, 531, 619, 634, 540, 527, 487, 507, 506, 515, 575, 512, 456, 516, 493, 525, 548, 552, 564, 506, 499, 481, 534, 554, 447, 528, 565, 555, 535, 527, 469, 513, 509, 541, 556, 533, 544, 562, 461, 428, 449, 523, 519, 528, 481, 490, 501, 482, 450, 457, 590, 587, 517, 557, 569, 592, 535, 507, 530, 592, 573, 537, 528, 504, 549, 526, 522, 527, 593, 559, 493, 526, 557, 562, 531, 612, 611, 554, 550, 502, 555, 537, 575, 622, 616, 565, 511, 514, 579, 536, 551, 529, 545, 605, 521, 453, 478, 520, 578, 510, 585, 633, 600, 546, 534, 616, 594, 509, 563, 566, 548, 540, 511, 588, 554, 511, 523, 443, 483, 579, 491, 556, 483, 509, 484, 460, 532, 476, 424, 500, 601, 565, 546, 508, 651, 616, 514, 532, 556, 539, 508, 510, 574, 557, 535, 577, 549, 554, 442, 542, 660, 615, 539, 565, 562, 499, 473, 542, 483, 528, 567, 542, 541, 570, 568, 484, 517, 651, 577, 571, 492, 466, 526, 556, 518, 523, 476, 553, 633, 751, 651, 571, 619, 646, 665, 638, 602, 658, 629, 588, 671, 642, 656, 612, 625, 673, 535, 523, 588, 590, 534, 549, 490, 542, 514, 511, 533, 431, 516, 490, 466, 593, 599, 554, 499, 512, 638, 567, 547, 685, 594, 564, 579, 540, 606, 572, 577, 681, 639, 538, 564, 611, 653, 582, 563, 698, 644, 582, 560, 580, 625, 514, 670, 708, 558, 476, 543, 550, 560, 583, 635, 779, 724, 578, 752, 836, 736, 631, 812, 860, 774, 710, 901, 1123, 970, 744, 718, 651, 643, 651, 752, 924, 973, 768, 650, 492, 550, 496, 611, 665, 705, 730, 712, 596, 573, 566, 585, 586, 560, 643, 726, 567, 486, 632, 612, 521, 530, 661, 601, 606, 566, 534, 528, 496, 526, 589, 564, 627, 585, 555, 535, 590, 591, 505, 562, 556, 699, 646, 547, 524, 612, 647, 742, 736, 798, 737, 671, 701, 833, 878, 656, 691, 713, 638, 573, 646, 669, 660, 685, 622, 631, 675, 587, 557, 607, 687, 708, 685, 640, 600, 647, 636, 662, 703, 741, 744, 663, 625, 693, 665, 630, 660, 620, 650, 752, 707, 621, 606, 570, 636, 760, 690, 618, 663, 610, 655, 651, 681, 691, 600, 530, 550, 530, 594, 526, 608, 694, 661, 667, 596, 590, 658, 666, 641, 565, 579, 659, 614, 489, 580, 580, 572, 514, 596, 602, 584, 578, 501, 471, 554, 690, 617, 598, 629, 525, 473, 528, 631, 700, 581, 641, 653, 500, 537, 560, 604, 623, 627, 677, 590, 532, 621, 611, 622, 632, 708, 668, 688, 708, 627, 627, 676, 717, 637, 575, 615, 668, 583, 526, 636, 655, 715, 716, 664, 621, 657, 754, 731, 799, 931, 1133, 1089, 653, 1338, 1918, 1476, 762, 1099, 1350, 1356, 750, 1743, 2412, 1716, 930, 1321, 1882, 1129, 664, 983, 1778, 1973, 2448, 4916, 5984, 2844, 1631, 4378, 9864, 9207, 3743, 7373, 8739, 4485, 2759, 7106, 15976, 14677, 2576, 4690, 5209, 3341, 2338, 4881, 10112, 9051, 1299, 4316, 4671, 2839, 1422, 4622, 6329, 4221, 1433, 5126, 4866, 2203, 1097, 4674, 6771, 4384, 1341, 3582, 3219, 1310, 765, 2775, 4130, 2655, 808, 1917, 1775, 863, 652, 1461, 2237, 1607, 549, 792, 816, 685, 492, 843, 1038, 763, 608, 952, 934, 683, 563, 795, 1064, 793, 603, 785, 679, 633, 586, 614, 815, 717, 754, 767, 702, 694, 590, 625, 711, 690, 949, 923, 714, 653, 612, 758, 700, 709, 862, 854, 653, 581, 619, 645, 688, 763, 716, 908, 744, 578, 575, 648, 758, 631, 629, 701, 706, 627, 638, 651, 637, 639, 717, 1293, 1335, 945, 840, 1216, 1403, 987, 972, 2431, 2617, 1547, 1074, 1998, 2567, 1826, 1062, 2187, 2472, 1389, 924, 1851, 2246, 1753, 804, 1088, 1336, 893, 694, 1225, 1277, 1035, 689, 662, 672, 600, 669, 708, 741, 710, 680, 662, 664, 669, 717, 699, 721, 781, 612, 642, 702, 641, 602, 619, 709, 699, 622, 671, 735, 674, 649, 725, 729, 672, 656, 750, 638, 515, 525, 665, 615, 544, 659, 647, 591, 619, 625, 601, 626, 686, 650, 581, 585, 650, 710, 594, 711, 763, 664, 661, 538, 622, 688, 668, 675, 704, 552, 587, 525, 630, 589, 548, 548, 577, 603, 570, 513, 649, 619, 587, 544, 609, 708, 609, 538, 702, 665, 588, 644, 743, 657, 665, 616, 623, 650, 647, 684, 638, 602, 655, 683, 647, 597, 577, 619, 589, 675, 648, 644, 684, 657, 643, 689, 728, 620, 688, 682, 624, 552, 638, 651, 672, 554, 695, 882, 784, 667, 695, 635, 671, 672, 674, 775, 789, 791, 704, 710, 835, 671, 681, 725, 699, 680, 680, 699, 752, 750, 681, 700, 597, 618, 669, 748, 798, 789, 783, 691, 549, 651, 694, 731, 749, 712, 771, 718, 627, 538, 633, 653, 694, 675, 555, 644, 627, 560, 573, 600, 737, 574, 430, 549, 565, 571, 592, 614, 695, 616, 594, 652, 662, 600, 491, 567, 645, 638, 620, 706, 725, 654, 661, 766, 748, 587, 626, 666, 667, 639, 635, 674, 657, 579, 591, 677, 667, 589, 575, 678, 665, 706, 681, 638, 608, 591, 656, 738, 705, 674, 634, 702, 675, 686, 695, 661, 749, 539, 613, 739, 695, 553, 617, 646, 679, 595, 600, 660, 635, 595, 491, 658, 686, 573, 600, 665, 677, 631, 479, 582, 668, 486, 585, 576, 582, 550, 559, 615, 551, 446, 536, 596, 559, 488, 531, 643, 540, 488, 542, 602, 531, 496, 582, 677, 580, 502, 505, 499, 480, 447, 525, 592, 555, 587, 604, 613, 546, 536, 561, 612, 618, 583, 673, 599, 542, 584, 552, 570, 531, 527, 505, 449, 513, 495, 405, 503, 553, 444, 432, 511, 521, 451, 475, 548, 549, 517, 561, 564, 467, 447, 563, 535, 460, 507, 560, 468, 393, 407, 506, 495, 394, 382, 422, 404, 368, 363, 469, 437, 357, 489, 439, 422, 437, 420, 446, 417, 388, 485, 411, 366, 386, 393, 401, 372, 379, 440, 446, 429, 393, 412, 438, 447, 451]"
-0.40359628200531006,-0.2915222942829132,0.23062348365783691,-1.057949423789978,0.07811129093170166,-0.03277098387479782,-0.8328450322151184,0.2940504550933838,1.0022163391113281,17.0,0.5262224674224854,0.5998134613037109,19.0,0.5432455539703369,0.6076812744140625,28.0,0.5439608097076416,0.6056785583496094,26.0,0.5881636142730713,0.5350112915039062,22.75,"[653, 748, 709, 646, 659, 650, 709, 752, 528, 677, 694, 658, 713, 679, 699, 696, 524, 574, 606, 484, 541, 583, 538, 538, 507, 573, 545, 504, 495, 542, 509, 416, 476, 521, 542, 534, 448, 530, 511, 460, 524, 581, 540, 491, 539, 546, 515, 551, 553, 636, 502, 509, 607, 557, 562, 543, 558, 580, 560, 583, 536, 507, 520, 515, 564, 599, 493, 495, 567, 628, 515, 405, 526, 508, 474, 466, 481, 556, 577, 505, 627, 591, 516, 504, 496, 541, 537, 548, 629, 528, 508, 531, 539, 608, 494, 577, 587, 519, 517, 555, 462, 525, 485, 513, 514, 579, 586, 595, 494, 545, 492, 424, 486, 460, 543, 582, 507, 546, 436, 454, 441, 483, 513, 535, 423, 492, 490, 447, 575, 501, 532, 556, 538, 546, 447, 499, 584, 607, 555, 534, 547, 573, 521, 490, 587, 592, 551, 522, 494, 534, 528, 449, 593, 645, 584, 588, 560, 561, 527, 487, 543, 585, 532, 615, 586, 512, 588, 562, 521, 605, 614, 636, 649, 657, 592, 555, 560, 583, 579, 610, 568, 557, 610, 590, 620, 511, 615, 646, 553, 538, 656, 678, 533, 605, 588, 568, 527, 530, 623, 570, 584, 605, 581, 543, 467, 495, 565, 574, 514, 590, 659, 591, 493, 525, 567, 567, 646, 647, 623, 564, 542, 627, 693, 642, 724, 845, 715, 539, 599, 864, 975, 770, 702, 849, 713, 543, 636, 839, 921, 659, 572, 623, 499, 473, 575, 710, 672, 513, 507, 569, 618, 529, 524, 510, 607, 554, 583, 596, 524, 539, 540, 538, 630, 577, 635, 628, 501, 535, 604, 561, 570, 522, 691, 829, 575, 449, 543, 636, 678, 568, 978, 1232, 946, 605, 787, 1058, 1119, 835, 1043, 1281, 1040, 687, 899, 1312, 1362, 982, 894, 1005, 979, 791, 812, 1024, 1121, 963, 751, 851, 878, 811, 720, 745, 797, 775, 664, 630, 674, 746, 694, 620, 642, 670, 561, 545, 507, 564, 606, 565, 526, 544, 528, 517, 468, 509, 555, 490, 538, 572, 597, 514, 502, 566, 582, 491, 467, 575, 554, 669, 600, 540, 543, 461, 519, 523, 741, 1123, 1010, 683, 562, 704, 833, 700, 1338, 1914, 1730, 1107, 1032, 1523, 1634, 1177, 1371, 1805, 1470, 880, 1040, 1614, 1664, 1148, 919, 1101, 884, 727, 761, 978, 1030, 808, 755, 692, 650, 627, 648, 671, 672, 698, 735, 638, 552, 659, 690, 606, 586, 674, 635, 632, 531, 643, 645, 675, 683, 606, 685, 628, 592, 619, 565, 631, 610, 649, 668, 610, 563, 622, 503, 530, 551, 618, 607, 618, 674, 694, 555, 556, 597, 622, 597, 557, 661, 754, 619, 512, 525, 572, 526, 542, 635, 682, 601, 518, 562, 596, 435, 555, 547, 477, 539, 614, 616, 536, 544, 623, 575, 486, 528, 638, 654, 593, 547, 650, 642, 634, 530, 666, 739, 648, 647, 943, 833, 702, 616, 796, 1050, 772, 564, 1004, 1035, 829, 541, 1066, 1520, 1102, 632, 1366, 1320, 1437, 731, 2035, 3263, 2429, 1048, 1450, 1400, 1893, 1096, 2248, 4273, 3612, 1033, 1043, 1245, 1523, 1001, 1642, 3026, 2675, 1936, 2581, 3411, 2302, 1291, 2924, 5866, 5437, 4631, 6467, 8355, 5275, 2782, 7440, 15661, 14458, 5109, 7342, 9540, 5672, 3062, 8190, 17832, 16599, 2420, 4209, 5329, 2781, 1313, 4499, 9606, 8809, 688, 1643, 1724, 901, 567, 1804, 2975, 2373, 610, 574, 696, 759, 542, 597, 902, 906, 608, 784, 663, 639, 566, 822, 1107, 889, 660, 753, 681, 705, 645, 689, 766, 687, 590, 721, 776, 816, 722, 586, 772, 775, 605, 758, 698, 766, 736, 664, 762, 681, 531, 620, 672, 662, 543, 646, 724, 565, 645, 622, 677, 803, 740, 574, 675, 671, 479, 540, 581, 692, 565, 593, 729, 577, 566, 583, 596, 597, 549, 662, 716, 610, 581, 561, 529, 566, 703, 680, 556, 554, 705, 699, 571, 626, 713, 741, 665, 583, 751, 730, 788, 702, 714, 898, 781, 598, 706, 625, 843, 780, 718, 972, 870, 693, 693, 577, 643, 632, 645, 680, 631, 712, 633, 617, 642, 653, 672, 649, 645, 659, 568, 541, 659, 672, 592, 552, 534, 651, 564, 488, 683, 716, 548, 521, 543, 646, 592, 499, 643, 618, 540, 567, 653, 709, 627, 571, 642, 631, 539, 588, 759, 752, 648, 592, 699, 659, 584, 623, 690, 700, 724, 636, 651, 672, 730, 711, 595, 698, 673, 623, 634, 633, 625, 508, 522, 638, 636, 694, 654, 628, 621, 655, 537, 509, 551, 624, 631, 565, 668, 735, 586, 524, 594, 631, 574, 525, 615, 713, 641, 622, 702, 702, 685, 745, 690, 703, 714, 653, 753, 722, 730, 800, 684, 718, 736, 720, 643, 685, 705, 645, 623, 610, 670, 678, 706, 651, 623, 643, 618, 674, 702, 646, 662, 577, 735, 754, 623, 625, 643, 666, 704, 666, 755, 751, 650, 582, 620, 716, 620, 604, 689, 644, 552, 597, 636, 773, 665, 569, 516, 585, 535, 521, 579, 702, 661, 569, 497, 583, 648, 589, 521, 685, 603, 585, 613, 624, 629, 572, 573, 561, 541, 602, 598, 589, 582, 524, 534, 610, 537, 618, 626, 575, 642, 679, 662, 674, 571, 508, 570, 627, 593, 600, 624, 645, 618, 574, 536, 580, 641, 696, 602, 497, 570, 610, 586, 508, 613, 703, 699, 575, 573, 558, 650, 662, 597, 729, 724, 593, 621, 679, 665, 633, 621, 651, 579, 510, 711, 667, 670, 673, 665, 593, 612, 705, 724, 656, 663, 669, 593, 564, 576, 732, 644, 590, 603, 697, 632, 571, 660, 728, 532, 537, 606, 710, 622, 519, 531, 539, 566, 552, 546, 558, 530, 501, 522, 592, 543, 489, 476, 531, 500, 475, 500, 558, 492, 507, 556, 530, 546, 520, 487, 530, 512, 491, 510, 561, 560, 568, 539, 520, 552, 524, 456, 500, 531, 576, 561, 494, 506, 557, 444, 430, 486, 489, 463, 452, 485, 491, 375, 399, 501, 502, 439, 438, 528, 480, 458, 510, 472, 499, 513, 505, 448, 477, 437, 486, 452, 427, 522, 463, 445, 486, 371, 441, 457, 393, 496, 469, 587, 531, 412, 509, 503, 429, 473, 521, 529, 505, 448, 449, 451, 447, 420, 467, 414, 460, 437, 421, 428, 407, 382, 399]"
-0.40359628200531006,-0.2915222942829132,0.23062348365783691,-1.057949423789978,0.07811129093170166,-0.03277098387479782,-0.8328450322151184,0.353130578994751,0.8598804473876953,15.75,0.4508345127105713,0.7494449615478516,15.75,0.5036203861236572,0.6812095642089844,24.5,0.5066244602203369,0.6876468658447266,19.25,0.5119173526763916,0.6072521209716797,25.25,"[510, 641, 657, 681, 697, 678, 659, 641, 562, 606, 593, 721, 679, 580, 618, 611, 547, 582, 576, 530, 538, 546, 510, 529, 577, 562, 530, 522, 565, 587, 520, 520, 477, 602, 577, 468, 487, 531, 487, 460, 480, 495, 534, 465, 502, 467, 499, 551, 485, 447, 495, 469, 526, 504, 430, 510, 572, 514, 490, 487, 555, 592, 496, 529, 547, 556, 485, 487, 621, 600, 470, 443, 569, 564, 573, 594, 622, 600, 484, 541, 469, 504, 554, 542, 585, 649, 583, 519, 532, 567, 541, 525, 527, 614, 597, 548, 502, 558, 507, 485, 505, 546, 556, 454, 513, 517, 571, 609, 486, 522, 477, 510, 509, 512, 584, 490, 484, 601, 551, 545, 599, 510, 513, 481, 498, 553, 485, 573, 556, 479, 576, 549, 511, 582, 507, 549, 566, 543, 591, 599, 601, 661, 566, 592, 552, 555, 460, 590, 568, 527, 547, 554, 541, 567, 538, 591, 534, 544, 562, 478, 504, 538, 472, 530, 520, 551, 564, 465, 593, 668, 601, 509, 510, 596, 578, 448, 579, 590, 636, 549, 536, 578, 549, 520, 567, 668, 645, 591, 562, 539, 610, 581, 494, 647, 608, 542, 556, 530, 594, 543, 494, 583, 608, 549, 516, 548, 545, 536, 522, 521, 497, 538, 480, 534, 503, 470, 505, 420, 512, 567, 479, 550, 623, 590, 602, 583, 614, 635, 585, 581, 639, 583, 614, 782, 730, 634, 661, 694, 718, 586, 610, 692, 630, 604, 579, 662, 742, 678, 596, 575, 556, 535, 581, 599, 638, 666, 562, 532, 537, 469, 458, 452, 584, 639, 543, 608, 599, 551, 525, 539, 569, 557, 527, 527, 589, 557, 567, 558, 572, 637, 591, 624, 535, 497, 586, 608, 581, 609, 571, 548, 529, 573, 616, 559, 563, 584, 520, 618, 617, 579, 546, 633, 660, 520, 580, 587, 583, 515, 511, 609, 646, 582, 712, 677, 610, 516, 596, 664, 657, 664, 656, 629, 611, 572, 485, 517, 508, 619, 546, 575, 661, 623, 602, 595, 552, 550, 598, 517, 594, 702, 692, 609, 524, 541, 626, 607, 602, 662, 642, 535, 537, 580, 673, 652, 619, 638, 621, 587, 514, 617, 797, 802, 660, 715, 800, 769, 678, 695, 887, 849, 712, 816, 928, 976, 836, 675, 775, 692, 637, 713, 739, 816, 678, 647, 528, 638, 641, 599, 707, 687, 498, 510, 595, 642, 688, 685, 698, 639, 556, 562, 659, 697, 660, 633, 661, 696, 674, 646, 758, 609, 534, 605, 591, 597, 642, 712, 613, 596, 538, 557, 595, 488, 556, 597, 604, 676, 597, 515, 583, 655, 677, 598, 564, 524, 553, 449, 567, 665, 616, 608, 580, 599, 516, 526, 613, 599, 515, 570, 607, 645, 592, 501, 577, 550, 556, 597, 564, 541, 497, 512, 630, 623, 607, 613, 515, 627, 649, 541, 583, 622, 712, 661, 613, 1008, 1030, 544, 578, 797, 895, 732, 532, 802, 812, 566, 624, 782, 749, 665, 821, 804, 1034, 1102, 746, 1458, 2250, 1885, 1273, 1262, 1448, 1670, 1096, 1996, 3662, 3268, 1015, 905, 1031, 1108, 773, 1293, 2354, 2184, 1474, 1456, 1843, 1436, 1012, 1943, 3924, 3724, 3983, 3263, 4247, 4570, 2848, 5197, 10881, 10242, 4577, 2880, 4325, 5501, 3382, 5183, 11698, 11336, 2299, 1534, 2662, 3397, 1843, 2731, 6026, 5764, 787, 1036, 1513, 1420, 667, 1322, 1942, 1592, 587, 860, 1002, 662, 612, 770, 814, 787, 657, 698, 826, 758, 483, 596, 679, 704, 613, 536, 596, 630, 487, 505, 622, 673, 615, 509, 509, 570, 574, 619, 707, 733, 642, 652, 608, 524, 517, 659, 676, 616, 647, 705, 656, 575, 563, 617, 633, 604, 673, 672, 606, 624, 569, 641, 604, 554, 545, 539, 665, 634, 516, 512, 640, 668, 646, 576, 652, 684, 608, 607, 626, 711, 720, 648, 617, 645, 684, 651, 643, 726, 745, 695, 678, 649, 633, 703, 721, 699, 810, 766, 603, 601, 636, 827, 698, 608, 723, 650, 691, 720, 630, 710, 714, 671, 830, 756, 767, 798, 623, 696, 704, 713, 842, 751, 758, 811, 686, 698, 756, 772, 638, 721, 655, 628, 593, 655, 663, 625, 596, 648, 614, 493, 531, 630, 640, 617, 535, 602, 634, 607, 637, 647, 607, 565, 562, 607, 620, 647, 616, 628, 666, 597, 486, 454, 539, 488, 535, 614, 614, 529, 521, 621, 553, 496, 587, 645, 589, 452, 602, 623, 562, 583, 668, 709, 622, 530, 690, 641, 649, 591, 616, 657, 609, 637, 725, 624, 513, 591, 587, 569, 590, 675, 729, 671, 741, 709, 668, 723, 693, 763, 713, 721, 729, 695, 740, 804, 724, 737, 708, 682, 610, 576, 681, 690, 591, 692, 527, 503, 544, 571, 521, 452, 483, 548, 554, 534, 494, 559, 582, 506, 529, 584, 604, 563, 474, 488, 600, 600, 585, 628, 557, 577, 591, 632, 538, 484, 570, 612, 562, 607, 605, 653, 585, 487, 519, 536, 647, 658, 675, 647, 575, 545, 615, 627, 569, 495, 610, 619, 523, 550, 635, 671, 541, 553, 538, 543, 565, 642, 638, 537, 567, 596, 712, 719, 644, 696, 664, 601, 541, 562, 619, 623, 520, 567, 536, 527, 583, 618, 596, 667, 651, 619, 577, 539, 595, 602, 640, 573, 507, 530, 540, 594, 697, 627, 553, 548, 523, 509, 507, 617, 617, 657, 605, 592, 549, 580, 495, 538, 654, 681, 704, 695, 601, 551, 550, 622, 627, 684, 629, 583, 607, 604, 574, 590, 478, 431, 621, 676, 578, 504, 486, 566, 553, 630, 629, 609, 550, 507, 589, 529, 600, 640, 483, 484, 520, 612, 611, 502, 598, 528, 519, 545, 574, 633, 633, 590, 530, 534, 508, 492, 511, 497, 526, 562, 518, 488, 476, 468, 541, 535, 556, 594, 515, 505, 493, 480, 474, 504, 554, 524, 544, 537, 586, 524, 471, 506, 578, 593, 473, 443, 406, 460, 452, 491, 560, 541, 501, 408, 413, 485, 484, 464, 445, 489, 425, 390, 371, 460, 491, 447, 398, 460, 539, 468, 416, 467, 510, 474, 426, 460, 450, 430, 411, 390, 372, 428, 388, 409, 383, 378, 467, 418, 360, 385, 418, 437, 370, 470, 514, 470, 411, 409, 442, 419, 387, 446, 425, 483, 462, 478, 452, 381]"
-0.508236289024353,-0.2856464982032776,0.045601822435855865,-1.1829420328140259,0.18366990983486176,-0.30063396692276,-0.8833678960800171,0.4868643283843994,0.9037971496582031,16.0,0.5528109073638916,0.7586002349853516,26.75,0.6151812076568604,0.6089687347412109,30.0,0.6445066928863525,0.6116867065429688,26.25,0.7025854587554932,0.6178379058837891,15.0,"[584, 583, 663, 633, 541, 631, 662, 582, 683, 597, 592, 744, 687, 660, 599, 676, 656, 615, 547, 586, 574, 584, 502, 549, 594, 612, 531, 470, 479, 477, 552, 542, 522, 593, 568, 486, 394, 514, 545, 481, 575, 596, 586, 516, 439, 603, 617, 531, 516, 515, 538, 503, 545, 586, 566, 574, 541, 531, 545, 512, 477, 563, 560, 548, 556, 538, 520, 556, 512, 498, 474, 492, 582, 594, 564, 568, 606, 569, 563, 541, 571, 609, 595, 580, 587, 603, 567, 489, 565, 608, 636, 635, 679, 627, 623, 618, 585, 535, 529, 551, 543, 523, 566, 652, 746, 619, 543, 588, 579, 576, 564, 667, 618, 637, 569, 553, 522, 537, 636, 650, 528, 526, 529, 476, 468, 445, 560, 604, 474, 559, 523, 437, 442, 485, 574, 515, 454, 513, 560, 535, 450, 531, 605, 554, 485, 588, 569, 497, 466, 527, 645, 552, 481, 534, 498, 570, 604, 545, 597, 510, 597, 575, 493, 539, 597, 641, 629, 585, 579, 560, 498, 541, 562, 556, 552, 549, 536, 546, 571, 568, 558, 472, 555, 596, 637, 566, 564, 601, 675, 665, 647, 700, 612, 541, 502, 549, 545, 613, 564, 567, 515, 516, 460, 481, 519, 526, 516, 529, 496, 592, 594, 527, 597, 592, 500, 492, 547, 543, 602, 625, 631, 593, 498, 554, 617, 535, 513, 558, 608, 455, 407, 562, 556, 501, 482, 467, 508, 490, 496, 527, 557, 595, 580, 512, 564, 566, 505, 528, 593, 615, 579, 601, 678, 643, 551, 597, 550, 661, 579, 525, 573, 650, 558, 504, 520, 640, 534, 445, 524, 565, 571, 588, 619, 557, 534, 581, 460, 478, 497, 606, 555, 531, 621, 667, 553, 450, 414, 569, 506, 533, 550, 602, 612, 534, 527, 525, 509, 521, 571, 539, 507, 599, 609, 521, 527, 460, 476, 470, 489, 584, 568, 538, 591, 573, 535, 577, 559, 526, 550, 578, 526, 575, 482, 517, 593, 548, 492, 525, 499, 595, 648, 681, 624, 650, 717, 622, 549, 491, 621, 714, 631, 561, 663, 663, 527, 490, 550, 644, 617, 568, 570, 606, 602, 527, 532, 668, 648, 613, 576, 592, 637, 499, 515, 626, 600, 715, 656, 613, 604, 570, 588, 604, 601, 727, 680, 523, 484, 558, 617, 691, 674, 639, 619, 516, 430, 448, 595, 534, 524, 527, 565, 587, 529, 500, 591, 566, 649, 656, 637, 645, 683, 563, 549, 606, 643, 700, 709, 688, 653, 636, 592, 604, 609, 707, 680, 638, 706, 590, 613, 710, 691, 571, 679, 796, 647, 753, 663, 659, 578, 567, 613, 613, 601, 719, 746, 715, 607, 594, 685, 635, 607, 654, 677, 583, 641, 687, 648, 577, 668, 656, 653, 596, 831, 959, 760, 674, 655, 623, 698, 696, 854, 907, 811, 728, 755, 825, 707, 655, 845, 911, 861, 838, 722, 997, 974, 637, 768, 834, 1079, 1022, 544, 941, 989, 638, 622, 751, 1071, 900, 529, 645, 723, 701, 615, 715, 842, 683, 607, 519, 600, 613, 570, 562, 595, 676, 578, 707, 744, 675, 589, 599, 985, 953, 1392, 2092, 2461, 1715, 1023, 2376, 4808, 4317, 4503, 6177, 7824, 5105, 2899, 7218, 15229, 14041, 5691, 8157, 10667, 6665, 3577, 9420, 20078, 18538, 3098, 5493, 7038, 4190, 1992, 6142, 12298, 11030, 1148, 1692, 1924, 1449, 1035, 2025, 3371, 2906, 601, 850, 1020, 702, 568, 720, 1175, 1113, 702, 918, 937, 668, 675, 966, 1118, 930, 635, 769, 829, 702, 680, 762, 805, 731, 650, 747, 679, 594, 564, 663, 667, 628, 654, 680, 612, 575, 610, 612, 640, 607, 585, 597, 637, 660, 602, 569, 624, 612, 648, 615, 671, 665, 581, 633, 634, 638, 614, 588, 584, 636, 558, 511, 455, 565, 638, 654, 594, 605, 581, 498, 585, 619, 613, 639, 636, 633, 586, 569, 667, 682, 729, 614, 621, 699, 672, 649, 565, 628, 663, 571, 591, 675, 656, 588, 622, 628, 630, 668, 645, 594, 590, 581, 563, 627, 675, 672, 689, 583, 567, 630, 576, 622, 593, 617, 711, 562, 531, 690, 634, 573, 588, 611, 643, 639, 610, 589, 607, 604, 671, 633, 598, 667, 701, 595, 597, 664, 551, 563, 580, 666, 628, 483, 544, 614, 687, 659, 615, 695, 671, 555, 577, 657, 586, 625, 593, 659, 667, 517, 577, 609, 676, 702, 605, 600, 629, 617, 769, 754, 633, 700, 591, 534, 546, 657, 720, 609, 675, 726, 641, 627, 637, 614, 589, 555, 563, 633, 617, 654, 644, 640, 635, 617, 541, 653, 701, 644, 620, 698, 735, 595, 516, 596, 681, 608, 533, 623, 675, 564, 504, 625, 599, 559, 604, 615, 661, 597, 523, 583, 531, 647, 651, 612, 648, 569, 550, 520, 603, 696, 699, 728, 697, 601, 514, 622, 628, 596, 590, 677, 691, 546, 515, 499, 475, 547, 541, 477, 566, 605, 489, 515, 491, 479, 526, 497, 525, 519, 597, 533, 506, 517, 544, 530, 509, 508, 575, 607, 604, 661, 667, 642, 593, 501, 610, 601, 608, 574, 543, 655, 644, 635, 575, 509, 591, 571, 573, 595, 563, 631, 511, 568, 669, 589, 511, 572, 596, 571, 628, 542, 591, 684, 529, 591, 724, 660, 664, 659, 676, 700, 661, 675, 601, 596, 638, 648, 680, 672, 684, 643, 575, 591, 598, 594, 631, 729, 678, 581, 581, 573, 681, 692, 673, 690, 617, 530, 599, 567, 570, 633, 639, 593, 633, 658, 605, 573, 541, 554, 558, 469, 545, 554, 506, 462, 607, 622, 547, 546, 605, 574, 468, 545, 599, 522, 525, 542, 597, 576, 519, 540, 565, 490, 467, 525, 605, 564, 485, 511, 490, 564, 527, 496, 613, 601, 522, 420, 504, 584, 501, 491, 575, 577, 523, 476, 514, 576, 557, 510, 557, 603, 557, 522, 513, 598, 526, 514, 486, 502, 514, 489, 535, 567, 547, 499, 537, 521, 446, 472, 498, 522, 489, 576, 544, 487, 417, 456, 488, 451, 477, 525, 491, 474, 469, 468, 528, 446, 521, 455, 461, 523, 484, 500, 411, 413, 440, 429, 471, 444, 369, 416, 433, 443, 463, 454, 362, 376, 456, 477, 397, 379, 428, 446, 388, 392, 434, 407, 490, 447, 382, 420, 458, 428, 423, 455]"
0.5577348470687866,-0.1680011749267578,-0.24582800269126892,-0.0368216335773468,-0.32918354868888855,-0.4829794764518738,-0.250695139169693,-0.145532488822937,0.7050991058349609,21.5,-0.08273303508758545,0.4975318908691406,19.5,-0.04081904888153076,0.3493309020996094,19.0,0.03986179828643799,0.3735065460205078,16.5,0.08663952350616455,0.3757953643798828,18.25,"[626, 651, 664, 587, 507, 586, 664, 653, 573, 620, 644, 621, 644, 670, 668, 641, 574, 552, 560, 553, 581, 647, 649, 596, 557, 538, 569, 572, 557, 621, 561, 530, 507, 499, 543, 563, 573, 546, 494, 522, 493, 538, 520, 492, 507, 503, 474, 516, 534, 516, 492, 485, 496, 460, 469, 510, 449, 499, 493, 475, 466, 420, 472, 480, 536, 584, 513, 483, 511, 473, 468, 454, 525, 504, 571, 490, 419, 457, 496, 499, 561, 510, 532, 498, 481, 462, 523, 595, 601, 622, 647, 530, 588, 567, 516, 596, 505, 624, 619, 500, 484, 565, 538, 508, 577, 504, 541, 542, 475, 523, 484, 580, 613, 562, 529, 498, 514, 597, 538, 509, 546, 515, 515, 542, 531, 506, 594, 556, 542, 552, 511, 471, 588, 541, 546, 569, 545, 576, 644, 597, 578, 601, 594, 542, 527, 635, 639, 483, 566, 589, 530, 496, 546, 547, 544, 534, 511, 493, 491, 519, 567, 535, 485, 538, 523, 576, 606, 551, 593, 650, 452, 495, 621, 577, 488, 453, 545, 582, 487, 512, 587, 473, 463, 489, 506, 588, 620, 636, 616, 543, 604, 531, 541, 519, 526, 604, 634, 532, 479, 489, 537, 516, 545, 583, 585, 583, 577, 562, 565, 610, 564, 539, 576, 629, 605, 542, 539, 489, 506, 602, 577, 508, 456, 496, 434, 394, 590, 629, 479, 484, 492, 445, 527, 524, 556, 622, 506, 584, 618, 505, 553, 542, 507, 575, 452, 552, 659, 595, 522, 556, 594, 689, 637, 603, 613, 598, 508, 596, 619, 556, 543, 634, 593, 547, 644, 592, 626, 554, 475, 623, 684, 664, 557, 668, 632, 527, 518, 562, 668, 620, 663, 652, 622, 552, 541, 532, 552, 659, 564, 508, 473, 497, 515, 531, 567, 574, 536, 558, 590, 575, 518, 653, 631, 539, 607, 603, 606, 538, 598, 654, 571, 510, 602, 512, 537, 536, 592, 554, 451, 551, 452, 577, 584, 501, 505, 507, 489, 433, 511, 536, 598, 576, 509, 460, 517, 569, 652, 508, 643, 670, 573, 524, 572, 702, 529, 514, 615, 652, 566, 497, 643, 689, 577, 517, 543, 635, 644, 591, 539, 607, 615, 573, 542, 679, 700, 611, 585, 582, 691, 707, 635, 681, 805, 801, 628, 527, 644, 691, 641, 543, 654, 753, 718, 583, 474, 505, 567, 569, 519, 524, 607, 652, 578, 607, 576, 594, 562, 554, 578, 627, 577, 644, 633, 589, 681, 613, 563, 594, 603, 760, 718, 594, 650, 606, 614, 572, 558, 616, 624, 590, 617, 609, 658, 584, 633, 652, 588, 595, 646, 677, 649, 579, 593, 773, 718, 581, 619, 653, 576, 537, 579, 625, 621, 626, 575, 513, 535, 488, 594, 671, 579, 572, 577, 606, 610, 524, 625, 719, 664, 571, 585, 538, 589, 619, 721, 1310, 1331, 884, 627, 966, 1411, 1120, 777, 2637, 2726, 1404, 790, 1927, 3063, 2271, 654, 3316, 3477, 1855, 779, 2899, 5257, 4131, 1209, 3123, 3252, 2705, 1159, 3807, 7174, 5858, 1370, 1888, 2104, 2506, 1315, 2778, 5589, 4784, 797, 1099, 1085, 1126, 764, 1359, 2823, 2495, 1226, 3656, 4299, 2068, 717, 3459, 6778, 5876, 1431, 6740, 7404, 3358, 962, 5741, 10347, 8394, 2262, 5878, 5916, 2729, 1427, 4519, 7483, 5787, 1527, 2633, 2677, 1704, 920, 2018, 3379, 2679, 876, 1757, 1822, 1467, 622, 2145, 2832, 1755, 617, 1653, 1680, 1463, 635, 2313, 3303, 2211, 721, 1150, 1444, 1435, 560, 1794, 2982, 2386, 959, 884, 1059, 1028, 737, 1158, 2087, 1959, 708, 916, 908, 659, 573, 782, 1302, 1306, 674, 924, 923, 712, 656, 734, 906, 846, 635, 688, 733, 650, 663, 769, 780, 782, 653, 617, 674, 622, 611, 723, 659, 658, 640, 614, 626, 666, 696, 629, 524, 635, 646, 707, 713, 727, 733, 636, 771, 775, 663, 1212, 1305, 919, 692, 944, 1384, 1122, 745, 2177, 2435, 1446, 849, 1673, 2359, 1716, 864, 2463, 2801, 1624, 911, 2082, 2614, 1822, 815, 1552, 1841, 1103, 695, 1392, 1620, 1243, 600, 829, 905, 718, 569, 742, 702, 656, 662, 784, 698, 592, 573, 601, 585, 574, 680, 678, 674, 648, 588, 530, 656, 737, 635, 487, 609, 706, 608, 437, 600, 762, 722, 617, 639, 707, 667, 553, 605, 749, 663, 572, 567, 667, 580, 661, 744, 670, 676, 547, 567, 622, 601, 661, 723, 687, 605, 611, 637, 561, 476, 527, 568, 626, 526, 636, 738, 581, 540, 690, 640, 581, 538, 723, 792, 584, 567, 667, 678, 615, 533, 558, 644, 602, 579, 581, 556, 544, 622, 633, 644, 609, 593, 617, 647, 651, 730, 594, 606, 627, 641, 588, 676, 824, 759, 630, 518, 623, 638, 620, 614, 730, 678, 684, 553, 588, 614, 547, 551, 589, 650, 640, 646, 746, 677, 630, 618, 579, 509, 625, 677, 660, 584, 626, 690, 602, 642, 607, 606, 593, 636, 627, 630, 704, 650, 670, 641, 458, 558, 592, 574, 645, 714, 662, 699, 663, 598, 513, 613, 729, 745, 528, 550, 622, 636, 516, 543, 764, 580, 567, 589, 550, 525, 620, 606, 594, 607, 568, 600, 608, 502, 527, 553, 554, 644, 667, 593, 608, 611, 628, 673, 652, 497, 630, 607, 620, 625, 648, 719, 589, 528, 604, 680, 646, 552, 529, 723, 678, 626, 614, 632, 668, 574, 546, 698, 741, 652, 720, 736, 681, 635, 616, 694, 716, 569, 665, 690, 626, 591, 578, 692, 688, 614, 535, 624, 631, 631, 612, 609, 671, 547, 499, 576, 599, 564, 589, 488, 530, 550, 558, 530, 508, 552, 526, 510, 525, 683, 614, 503, 589, 546, 514, 573, 594, 612, 598, 624, 606, 561, 607, 669, 636, 618, 564, 588, 642, 589, 642, 638, 605, 678, 603, 452, 543, 594, 570, 564, 593, 601, 515, 540, 570, 572, 558, 532, 574, 509, 435, 523, 507, 511, 543, 587, 566, 497, 396, 457, 472, 455, 446, 439, 551, 542, 410, 435, 531, 498, 446, 423, 538, 427, 478, 455, 420, 362, 391, 449, 433, 442, 533, 451, 432, 467, 429, 553, 558, 407, 500, 477, 378, 388, 422, 433, 438, 410, 439, 449, 444, 438, 491, 490, 443, 474, 435, 395, 443, 460, 444, 501, 475, 371, 346, 352, 400, 462, 442, 395, 425]"
0.48571062088012695,-0.1421499103307724,-0.28023871779441833,-0.20448023080825806,-0.27292945981025696,-0.4923607110977173,-0.4046684205532074,-0.029271364212036133,0.4504680633544922,20.25,-0.003808259963989258,0.37293434143066406,16.5,0.027662992477416992,0.38051605224609375,18.25,0.08788752555847168,0.6943702697753906,18.75,0.13237643241882324,0.9342670440673828,15.25,"[437, 497, 560, 532, 501, 529, 558, 495, 436, 488, 558, 555, 520, 516, 542, 499, 445, 516, 510, 462, 434, 467, 477, 437, 451, 489, 495, 445, 442, 416, 439, 475, 605, 534, 516, 458, 478, 548, 546, 553, 634, 663, 552, 520, 541, 537, 627, 654, 627, 613, 507, 483, 554, 560, 574, 581, 480, 454, 527, 516, 549, 531, 532, 522, 486, 499, 567, 569, 580, 536, 477, 508, 582, 671, 618, 529, 560, 583, 510, 510, 582, 621, 592, 471, 498, 587, 513, 474, 493, 559, 576, 456, 425, 550, 591, 491, 430, 477, 497, 464, 439, 516, 548, 506, 586, 539, 491, 515, 500, 547, 487, 579, 545, 442, 539, 587, 509, 474, 421, 490, 603, 572, 510, 505, 549, 584, 484, 498, 489, 501, 481, 459, 513, 570, 536, 498, 628, 546, 513, 494, 590, 564, 549, 614, 583, 485, 483, 558, 592, 569, 464, 565, 566, 549, 596, 664, 579, 586, 562, 543, 532, 552, 575, 522, 495, 538, 505, 533, 644, 643, 572, 513, 570, 627, 544, 556, 634, 609, 558, 502, 528, 612, 625, 608, 675, 605, 535, 582, 544, 518, 563, 634, 483, 502, 517, 527, 493, 478, 545, 496, 548, 627, 563, 473, 525, 519, 513, 500, 527, 573, 535, 516, 510, 570, 526, 484, 523, 530, 525, 626, 616, 514, 549, 550, 473, 456, 468, 517, 453, 468, 535, 531, 554, 522, 561, 509, 530, 520, 552, 566, 541, 524, 495, 538, 509, 497, 528, 491, 549, 545, 548, 504, 513, 512, 485, 481, 530, 503, 541, 580, 554, 484, 495, 470, 519, 578, 559, 593, 511, 533, 545, 472, 493, 525, 602, 600, 462, 441, 550, 548, 510, 546, 589, 523, 591, 599, 587, 602, 562, 576, 564, 554, 575, 560, 572, 623, 538, 583, 590, 677, 657, 544, 575, 524, 588, 542, 459, 576, 625, 549, 576, 601, 667, 532, 477, 580, 630, 565, 509, 614, 514, 419, 450, 620, 569, 452, 402, 480, 485, 545, 665, 632, 549, 562, 511, 508, 510, 616, 616, 617, 621, 578, 569, 535, 614, 603, 567, 479, 541, 530, 503, 592, 613, 617, 598, 500, 553, 548, 449, 543, 613, 612, 643, 551, 670, 665, 583, 653, 665, 631, 716, 631, 691, 783, 687, 624, 628, 577, 599, 675, 784, 813, 631, 569, 587, 591, 590, 607, 661, 717, 660, 562, 567, 622, 701, 629, 577, 630, 665, 585, 591, 709, 691, 577, 575, 637, 598, 558, 549, 696, 699, 540, 487, 650, 680, 589, 554, 568, 586, 592, 536, 549, 580, 569, 550, 607, 687, 684, 572, 578, 603, 598, 552, 610, 621, 608, 674, 602, 578, 583, 658, 649, 592, 610, 591, 631, 576, 586, 603, 731, 612, 488, 545, 621, 571, 462, 796, 1255, 1209, 743, 551, 774, 1127, 969, 1314, 2684, 2553, 1202, 766, 1543, 2479, 1929, 1382, 2813, 2600, 1170, 707, 1820, 2680, 1829, 1062, 2164, 1992, 904, 749, 1657, 2239, 1417, 898, 1852, 1920, 1167, 872, 1778, 2255, 1498, 768, 1129, 1191, 958, 770, 1458, 1745, 1134, 1051, 1384, 1289, 1143, 872, 1733, 2894, 2426, 2152, 2967, 3795, 2638, 1544, 3292, 7505, 7053, 2893, 3509, 4856, 3248, 1980, 3802, 9229, 8918, 2409, 2389, 3285, 2232, 1304, 3303, 7192, 6834, 1763, 3663, 3601, 1605, 809, 4597, 7523, 5933, 1988, 3268, 2305, 1182, 1253, 3778, 4747, 2797, 1524, 2042, 1562, 1101, 991, 2182, 2393, 1205, 854, 939, 869, 827, 628, 1015, 1143, 873, 593, 705, 796, 682, 538, 826, 892, 711, 807, 822, 701, 656, 608, 897, 1010, 873, 874, 652, 704, 617, 604, 814, 1127, 1201, 777, 611, 730, 686, 722, 815, 1013, 1114, 712, 649, 674, 686, 724, 771, 728, 763, 688, 625, 584, 695, 734, 647, 589, 612, 699, 783, 715, 706, 665, 776, 747, 568, 828, 898, 795, 557, 540, 786, 843, 799, 827, 867, 798, 617, 643, 814, 829, 755, 724, 811, 745, 641, 682, 865, 781, 609, 712, 693, 603, 532, 606, 682, 585, 596, 616, 548, 558, 604, 538, 597, 627, 569, 646, 623, 556, 575, 560, 583, 657, 628, 563, 718, 719, 530, 565, 573, 570, 526, 564, 648, 677, 510, 600, 716, 574, 593, 666, 660, 649, 590, 634, 713, 660, 646, 613, 661, 712, 649, 595, 715, 735, 624, 648, 578, 655, 638, 573, 615, 763, 759, 643, 611, 653, 658, 631, 623, 762, 725, 650, 584, 506, 557, 591, 470, 650, 701, 638, 609, 615, 611, 549, 579, 618, 630, 591, 550, 541, 550, 595, 630, 524, 562, 724, 659, 627, 580, 660, 637, 604, 676, 692, 617, 660, 727, 746, 746, 744, 680, 680, 595, 715, 787, 758, 759, 641, 628, 645, 656, 624, 595, 627, 704, 626, 528, 674, 657, 568, 531, 584, 684, 607, 542, 601, 613, 654, 612, 578, 620, 584, 515, 690, 722, 613, 601, 609, 607, 564, 613, 550, 622, 547, 509, 567, 558, 557, 485, 588, 556, 548, 579, 615, 671, 634, 554, 691, 649, 637, 657, 583, 592, 630, 634, 735, 586, 741, 725, 573, 583, 642, 718, 713, 633, 582, 595, 652, 651, 579, 660, 648, 629, 570, 674, 716, 596, 614, 623, 745, 654, 553, 646, 741, 651, 698, 778, 750, 708, 608, 657, 722, 624, 610, 706, 514, 591, 608, 617, 650, 599, 669, 611, 563, 546, 559, 641, 553, 657, 717, 580, 587, 717, 643, 585, 544, 743, 845, 684, 619, 639, 699, 665, 589, 570, 636, 688, 567, 663, 719, 570, 502, 578, 615, 604, 603, 478, 623, 746, 626, 525, 560, 629, 643, 574, 704, 712, 632, 636, 600, 642, 594, 651, 692, 566, 558, 591, 652, 578, 626, 592, 544, 498, 464, 506, 726, 708, 569, 557, 524, 412, 450, 518, 595, 630, 522, 500, 550, 457, 489, 578, 598, 590, 482, 465, 465, 471, 538, 516, 481, 516, 514, 472, 476, 407, 529, 592, 546, 555, 537, 575, 531, 441, 520, 545, 489, 498, 544, 513, 443, 432, 475, 465, 422, 467, 426, 462, 474, 511, 415, 494, 544, 398, 450, 412, 376, 426, 394, 444, 415, 406, 420, 473, 420, 426, 408, 360, 430, 395, 410, 434, 401, 420, 450, 440, 435, 419, 475, 353, 377, 468, 479, 389, 420, 498]"
0.38965898752212524,0.15808065235614777,0.3652171194553375,0.16659295558929443,0.1560324877500534,0.3282708525657654,0.31264790892601013,-0.8757098913192749,-1.6260623931884766,15.25,-0.1657470464706421,0.8437156677246094,19.0,-0.16031110286712646,0.762176513671875,23.25,-0.12540662288665771,0.6062507629394531,22.75,-0.10123097896575928,0.5254268646240234,15.75,"[622, 632, 632, 611, 555, 614, 631, 630, 617, 528, 631, 694, 727, 734, 616, 642, 665, 562, 548, 558, 590, 616, 517, 662, 572, 575, 575, 480, 460, 561, 572, 544, 511, 524, 528, 437, 469, 487, 532, 558, 510, 530, 572, 543, 481, 484, 511, 503, 477, 512, 496, 443, 516, 520, 534, 548, 515, 460, 552, 478, 436, 419, 494, 541, 471, 475, 510, 466, 461, 485, 506, 482, 446, 561, 548, 527, 502, 498, 531, 494, 551, 583, 605, 612, 537, 539, 633, 512, 503, 498, 572, 539, 539, 560, 483, 432, 482, 489, 605, 565, 495, 616, 568, 492, 540, 464, 579, 574, 504, 557, 536, 549, 633, 554, 549, 541, 459, 480, 495, 507, 528, 473, 513, 522, 456, 473, 491, 523, 524, 504, 538, 538, 492, 466, 529, 556, 616, 529, 605, 635, 567, 446, 561, 657, 622, 528, 518, 518, 577, 543, 523, 596, 636, 591, 535, 505, 651, 625, 596, 609, 565, 589, 543, 523, 614, 633, 575, 545, 658, 602, 539, 561, 577, 595, 556, 601, 594, 586, 580, 539, 539, 595, 549, 570, 566, 608, 588, 512, 527, 620, 542, 535, 588, 521, 522, 529, 554, 518, 533, 546, 560, 588, 575, 558, 524, 600, 627, 567, 594, 603, 553, 571, 632, 630, 648, 633, 629, 592, 538, 548, 593, 561, 521, 597, 611, 573, 580, 485, 622, 620, 574, 568, 546, 591, 596, 535, 527, 617, 551, 495, 570, 560, 580, 566, 477, 504, 498, 537, 565, 556, 530, 550, 511, 516, 536, 596, 590, 512, 456, 494, 566, 561, 549, 590, 548, 489, 466, 462, 567, 623, 532, 559, 567, 530, 574, 474, 530, 613, 552, 569, 588, 580, 519, 539, 545, 573, 525, 586, 570, 550, 523, 507, 590, 631, 615, 584, 513, 510, 561, 453, 541, 565, 550, 546, 561, 637, 623, 520, 604, 591, 574, 587, 691, 682, 618, 613, 633, 618, 596, 621, 605, 616, 520, 542, 571, 558, 535, 541, 539, 605, 524, 584, 641, 629, 551, 507, 540, 481, 555, 617, 564, 549, 605, 615, 547, 548, 573, 573, 490, 400, 550, 647, 465, 583, 579, 564, 508, 522, 604, 549, 592, 616, 609, 636, 599, 601, 634, 616, 654, 646, 606, 557, 649, 701, 676, 594, 576, 576, 616, 575, 551, 676, 649, 580, 554, 556, 578, 590, 541, 513, 581, 588, 695, 597, 661, 604, 577, 602, 524, 683, 530, 521, 571, 550, 498, 635, 578, 497, 506, 525, 554, 645, 556, 556, 624, 557, 552, 530, 545, 652, 628, 523, 538, 536, 636, 626, 571, 612, 625, 597, 589, 605, 593, 523, 543, 610, 578, 563, 595, 591, 547, 583, 611, 581, 559, 577, 574, 531, 576, 551, 565, 516, 567, 611, 585, 520, 543, 611, 581, 452, 501, 609, 659, 605, 621, 656, 691, 599, 547, 684, 719, 707, 790, 860, 886, 745, 623, 804, 1042, 1006, 884, 1332, 1569, 1008, 684, 996, 1628, 1563, 821, 1275, 1338, 996, 880, 1096, 1758, 1546, 1041, 1391, 1641, 1269, 838, 1378, 2235, 2008, 993, 1260, 1421, 1136, 678, 1116, 1688, 1547, 1390, 2152, 2672, 1703, 914, 2175, 4097, 3696, 3528, 5060, 6601, 3860, 2104, 5459, 10876, 10049, 4332, 6360, 7874, 4613, 2591, 7033, 13846, 12572, 2766, 4337, 5044, 3536, 1737, 5222, 10293, 9075, 1214, 1301, 1632, 1611, 733, 2295, 4021, 3417, 929, 1196, 1093, 760, 711, 819, 898, 869, 813, 1549, 1486, 831, 703, 930, 1525, 1189, 636, 1315, 1319, 755, 560, 905, 1287, 963, 781, 1653, 1766, 1015, 534, 1224, 1782, 1413, 1738, 3279, 2874, 1204, 771, 2101, 2872, 1805, 2196, 4035, 3412, 1235, 1076, 2360, 3248, 2049, 1979, 3772, 3271, 1277, 959, 2076, 3114, 2145, 1257, 2605, 2311, 880, 623, 1508, 2313, 1614, 709, 1202, 1125, 631, 580, 925, 1276, 997, 662, 663, 615, 568, 490, 658, 660, 607, 636, 696, 627, 541, 558, 638, 654, 551, 608, 718, 664, 586, 527, 579, 687, 589, 579, 687, 638, 555, 512, 532, 752, 701, 618, 773, 753, 654, 646, 557, 660, 644, 855, 790, 715, 621, 625, 625, 611, 727, 813, 674, 652, 595, 532, 609, 621, 815, 693, 656, 751, 704, 619, 626, 652, 741, 597, 633, 705, 673, 633, 645, 604, 547, 546, 527, 654, 661, 523, 600, 604, 532, 625, 601, 650, 719, 609, 550, 630, 598, 582, 562, 561, 685, 692, 546, 596, 667, 582, 604, 626, 612, 575, 459, 559, 618, 551, 647, 642, 580, 488, 428, 552, 537, 535, 636, 563, 477, 529, 496, 523, 550, 546, 558, 580, 577, 576, 580, 631, 647, 534, 579, 612, 563, 541, 640, 644, 584, 563, 582, 655, 623, 589, 676, 604, 569, 555, 516, 486, 518, 478, 538, 627, 561, 557, 562, 556, 592, 610, 616, 576, 559, 661, 673, 731, 651, 607, 682, 632, 590, 703, 669, 641, 621, 532, 630, 667, 679, 616, 611, 594, 540, 560, 644, 668, 651, 553, 611, 631, 494, 459, 540, 611, 609, 507, 733, 776, 543, 465, 636, 669, 574, 501, 697, 708, 595, 529, 552, 679, 564, 521, 603, 733, 753, 616, 516, 641, 606, 668, 595, 595, 716, 710, 594, 674, 734, 610, 585, 519, 617, 621, 602, 655, 635, 532, 606, 667, 651, 601, 600, 579, 539, 532, 656, 733, 558, 544, 646, 668, 639, 548, 672, 732, 600, 527, 614, 620, 562, 582, 568, 613, 590, 519, 571, 574, 543, 566, 582, 548, 510, 562, 673, 576, 543, 573, 568, 572, 554, 557, 612, 544, 534, 583, 598, 688, 612, 539, 644, 588, 589, 546, 554, 575, 596, 641, 582, 553, 588, 599, 569, 505, 557, 685, 638, 486, 509, 513, 556, 494, 487, 563, 542, 528, 564, 533, 605, 686, 585, 605, 670, 697, 630, 620, 584, 637, 580, 612, 589, 584, 615, 525, 453, 474, 490, 506, 552, 512, 556, 392, 466, 444, 455, 441, 445, 471, 463, 467, 527, 444, 410, 438, 465, 512, 467, 440, 452, 491, 462, 410, 453, 465, 487, 407, 398, 449, 439, 411, 475, 439, 446, 421, 394, 431, 457, 395, 442, 495, 481, 468, 413, 403, 444, 415, 454, 412, 400, 405, 397, 398, 365, 379, 468, 413, 371, 392, 418, 457, 387, 409, 467, 431, 351]"
0.4078423082828522,-0.26524996757507324,-0.09817002713680267,0.05542777478694916,-0.5518321990966797,-0.5051309466362,-0.03120379149913788,-0.08213496208190918,0.6731986999511719,26.0,-0.03650164604187012,0.52642822265625,26.75,0.006413698196411133,0.4559040069580078,25.5,0.10154271125793457,0.3075599670410156,22.5,0.19767308235168457,0.0,16.25,"[398, 538, 608, 559, 526, 559, 610, 538, 469, 608, 631, 709, 618, 603, 685, 576, 613, 556, 630, 688, 571, 600, 575, 621, 505, 491, 470, 525, 538, 495, 461, 472, 405, 458, 559, 571, 486, 421, 455, 494, 515, 503, 565, 584, 520, 445, 429, 482, 540, 569, 588, 549, 500, 540, 563, 557, 511, 520, 501, 522, 477, 481, 531, 495, 446, 463, 447, 523, 502, 471, 481, 501, 528, 475, 494, 577, 610, 573, 499, 492, 455, 459, 406, 438, 516, 600, 525, 402, 596, 583, 511, 577, 586, 522, 544, 543, 661, 572, 513, 572, 608, 556, 510, 577, 650, 540, 473, 630, 584, 577, 492, 530, 559, 518, 485, 581, 562, 571, 541, 506, 554, 500, 625, 607, 494, 599, 609, 540, 555, 484, 582, 650, 558, 495, 524, 581, 638, 531, 505, 632, 632, 508, 516, 612, 582, 490, 469, 503, 557, 507, 477, 578, 650, 537, 479, 496, 668, 595, 484, 647, 611, 497, 557, 516, 533, 519, 479, 633, 559, 555, 573, 554, 557, 487, 503, 532, 566, 578, 580, 538, 580, 524, 558, 580, 544, 551, 588, 565, 519, 561, 552, 593, 619, 594, 581, 565, 515, 565, 538, 561, 681, 572, 514, 499, 500, 501, 449, 618, 624, 543, 433, 485, 561, 487, 378, 510, 640, 709, 549, 448, 598, 604, 516, 497, 566, 552, 520, 527, 478, 485, 515, 540, 613, 578, 636, 616, 573, 562, 554, 630, 538, 593, 657, 680, 624, 571, 469, 475, 553, 637, 553, 557, 639, 646, 499, 459, 551, 515, 514, 532, 539, 543, 471, 511, 543, 520, 613, 560, 515, 575, 532, 515, 579, 543, 584, 603, 558, 611, 525, 518, 591, 539, 546, 612, 587, 622, 560, 549, 581, 584, 520, 491, 456, 529, 574, 514, 458, 563, 593, 467, 434, 516, 651, 603, 567, 582, 618, 564, 532, 533, 680, 632, 567, 593, 608, 603, 504, 528, 581, 567, 654, 599, 523, 590, 504, 501, 494, 580, 715, 693, 498, 610, 702, 640, 587, 583, 617, 595, 500, 538, 559, 503, 513, 587, 662, 542, 551, 608, 613, 621, 623, 628, 630, 536, 584, 631, 562, 635, 635, 644, 583, 596, 546, 552, 557, 610, 631, 597, 650, 609, 579, 574, 584, 645, 665, 681, 614, 483, 504, 611, 523, 513, 567, 711, 631, 505, 492, 537, 612, 616, 542, 615, 581, 490, 534, 594, 612, 594, 600, 625, 569, 563, 560, 607, 563, 536, 509, 560, 620, 664, 568, 495, 550, 633, 554, 556, 716, 674, 618, 562, 523, 610, 524, 573, 690, 702, 609, 662, 648, 602, 504, 539, 633, 627, 498, 676, 738, 551, 544, 589, 640, 590, 640, 689, 681, 630, 604, 594, 570, 556, 619, 655, 577, 548, 678, 684, 715, 575, 579, 649, 631, 569, 666, 726, 635, 564, 655, 663, 511, 542, 632, 655, 657, 574, 711, 705, 654, 719, 727, 712, 731, 866, 1132, 1089, 721, 1212, 1928, 1622, 1063, 1130, 1300, 1486, 1039, 1660, 2784, 2412, 1178, 798, 953, 1031, 1004, 1074, 1836, 1939, 679, 1787, 1822, 1684, 760, 1798, 3252, 2511, 2636, 5513, 6131, 3866, 1990, 6186, 12191, 10524, 4055, 7645, 9034, 4962, 2574, 8354, 16867, 14906, 3550, 6622, 7905, 4325, 1999, 7434, 14641, 12883, 1746, 5615, 5947, 2926, 1142, 6158, 11156, 9071, 910, 3936, 3589, 1373, 674, 3761, 6172, 4454, 1047, 2596, 2501, 1140, 646, 2002, 3201, 2340, 856, 1815, 1845, 1105, 683, 1749, 2574, 1928, 643, 942, 1052, 822, 678, 922, 1063, 883, 653, 696, 771, 826, 679, 634, 691, 669, 653, 634, 678, 682, 629, 664, 812, 732, 667, 731, 598, 530, 559, 704, 736, 598, 667, 716, 574, 591, 574, 670, 739, 613, 574, 663, 598, 605, 597, 594, 714, 650, 572, 514, 525, 605, 534, 559, 658, 614, 478, 639, 741, 622, 576, 767, 869, 648, 747, 1128, 1287, 839, 823, 1313, 1420, 1011, 815, 1595, 1994, 1153, 884, 1690, 1761, 1293, 668, 1385, 1620, 948, 674, 1206, 1331, 1010, 665, 904, 855, 617, 602, 701, 738, 572, 681, 600, 672, 719, 573, 592, 656, 761, 751, 618, 715, 626, 612, 530, 624, 887, 814, 671, 673, 659, 727, 627, 657, 829, 661, 695, 727, 670, 669, 706, 723, 739, 448, 553, 653, 601, 590, 668, 624, 568, 615, 516, 595, 667, 675, 631, 561, 629, 639, 575, 589, 611, 593, 559, 563, 646, 521, 628, 683, 645, 535, 655, 720, 493, 627, 691, 639, 638, 601, 667, 727, 490, 542, 587, 514, 510, 591, 719, 766, 597, 577, 622, 626, 663, 531, 692, 922, 783, 596, 673, 633, 626, 593, 749, 834, 686, 599, 546, 550, 531, 635, 726, 650, 640, 648, 600, 490, 564, 655, 607, 579, 625, 661, 593, 526, 522, 669, 647, 544, 575, 486, 665, 656, 603, 629, 626, 702, 630, 559, 692, 753, 666, 630, 685, 644, 616, 558, 568, 717, 759, 590, 519, 613, 584, 643, 533, 680, 740, 658, 661, 592, 597, 599, 515, 567, 609, 572, 546, 558, 589, 555, 536, 621, 576, 476, 593, 709, 680, 496, 499, 594, 608, 580, 516, 545, 641, 543, 588, 645, 673, 609, 568, 554, 540, 589, 519, 544, 537, 528, 596, 570, 584, 504, 561, 535, 512, 579, 624, 558, 486, 583, 592, 586, 550, 568, 543, 576, 578, 623, 624, 617, 632, 650, 594, 622, 669, 623, 661, 640, 679, 743, 731, 701, 686, 590, 650, 587, 587, 648, 643, 641, 588, 585, 536, 578, 595, 539, 578, 599, 598, 599, 515, 522, 553, 482, 538, 644, 609, 473, 604, 533, 442, 489, 532, 609, 542, 460, 487, 516, 538, 583, 549, 593, 605, 517, 484, 451, 511, 591, 575, 484, 504, 523, 494, 441, 500, 530, 528, 458, 418, 548, 533, 473, 494, 539, 523, 444, 456, 618, 577, 550, 495, 533, 520, 435, 566, 448, 473, 539, 506, 389, 445, 527, 536, 480, 436, 522, 501, 462, 447, 498, 517, 438, 434, 427, 446, 433, 501, 535, 504, 397, 378, 476, 490, 399, 399, 511, 500, 447, 387, 447, 456, 385, 419, 456, 439, 382, 447, 471, 358, 384, 459, 441, 380, 409, 392, 412, 427, 379, 446, 477, 447, 403, 375, 412, 385, 406, 440, 385, 366]"
0.6095712184906006,-0.0019460618495941162,0.22573645412921906,0.48864299058914185,-0.12779241800308228,0.22183042764663696,0.576728105545044,-0.2198852300643921,0.9102344512939453,21.25,-0.1672424077987671,0.7607460021972656,23.5,-0.1093066930770874,-0.6114006042480469,19.0,0.3930889368057251,0.8049488067626953,16.5,0.42842257022857666,0.6433010101318359,15.75,"[551, 613, 655, 561, 485, 560, 656, 615, 498, 522, 617, 647, 568, 523, 604, 662, 586, 613, 595, 579, 579, 568, 634, 588, 608, 514, 508, 546, 563, 514, 476, 571, 491, 374, 447, 537, 503, 441, 443, 504, 455, 401, 428, 480, 438, 446, 463, 466, 558, 550, 541, 527, 514, 530, 507, 532, 515, 543, 584, 511, 594, 548, 531, 549, 484, 471, 498, 498, 522, 469, 486, 549, 558, 472, 432, 481, 530, 485, 430, 519, 537, 457, 425, 479, 545, 502, 499, 539, 539, 522, 503, 538, 564, 486, 465, 529, 540, 571, 499, 538, 577, 577, 525, 507, 634, 549, 514, 591, 586, 577, 557, 561, 701, 596, 540, 593, 636, 602, 529, 621, 631, 508, 501, 603, 642, 549, 526, 635, 545, 502, 524, 493, 468, 443, 516, 536, 573, 515, 496, 518, 441, 528, 508, 497, 467, 501, 487, 449, 443, 492, 563, 516, 473, 506, 542, 533, 527, 585, 540, 512, 430, 507, 540, 479, 462, 556, 554, 451, 465, 509, 550, 481, 443, 520, 614, 566, 493, 563, 593, 546, 491, 579, 659, 542, 474, 563, 597, 576, 523, 615, 626, 559, 544, 601, 658, 600, 562, 640, 606, 559, 451, 562, 631, 602, 516, 576, 709, 598, 453, 533, 521, 531, 509, 583, 644, 489, 507, 522, 561, 514, 508, 526, 501, 487, 513, 422, 531, 512, 525, 532, 517, 560, 516, 492, 594, 555, 439, 459, 613, 618, 513, 518, 600, 588, 478, 510, 538, 528, 590, 498, 512, 589, 554, 540, 504, 545, 560, 443, 464, 566, 520, 466, 402, 477, 609, 508, 568, 597, 548, 576, 590, 624, 576, 511, 575, 575, 520, 529, 583, 597, 459, 471, 565, 524, 513, 518, 543, 552, 471, 505, 527, 498, 507, 478, 475, 470, 562, 584, 498, 513, 604, 603, 493, 484, 639, 549, 467, 547, 671, 675, 557, 606, 654, 511, 458, 567, 603, 624, 562, 621, 636, 606, 550, 577, 608, 649, 535, 532, 534, 662, 595, 609, 519, 599, 663, 499, 560, 674, 565, 515, 503, 498, 624, 564, 591, 504, 510, 504, 533, 509, 552, 674, 547, 539, 619, 602, 493, 598, 608, 615, 582, 623, 657, 648, 615, 661, 734, 670, 621, 603, 556, 648, 610, 590, 650, 654, 723, 680, 557, 637, 528, 624, 636, 580, 635, 674, 558, 639, 612, 555, 611, 552, 651, 618, 587, 543, 593, 633, 598, 601, 591, 591, 534, 491, 621, 600, 510, 594, 585, 536, 550, 567, 625, 497, 550, 661, 507, 541, 596, 589, 647, 617, 597, 531, 595, 672, 692, 583, 614, 748, 701, 612, 592, 616, 571, 528, 536, 708, 654, 554, 604, 526, 574, 626, 552, 609, 605, 668, 566, 594, 607, 580, 560, 604, 630, 623, 632, 691, 684, 580, 627, 713, 632, 665, 661, 925, 843, 502, 503, 768, 869, 677, 688, 883, 736, 471, 479, 618, 741, 631, 550, 605, 665, 549, 434, 515, 594, 573, 516, 588, 627, 645, 492, 610, 762, 718, 861, 694, 906, 1016, 740, 745, 1237, 1275, 694, 648, 774, 902, 708, 605, 922, 946, 726, 1346, 1424, 914, 576, 1490, 2494, 2002, 2161, 3410, 4056, 2739, 1478, 3932, 7898, 7049, 2888, 4205, 5336, 3473, 2031, 4766, 10245, 9453, 1620, 2517, 3180, 2131, 1449, 2595, 5755, 5368, 1431, 1382, 1397, 1278, 1341, 1118, 1653, 1984, 3509, 3064, 3151, 2354, 2450, 3954, 2771, 2334, 3872, 3351, 3512, 2397, 2743, 4310, 2716, 2709, 1869, 1717, 1952, 1430, 1487, 2026, 1359, 1547, 711, 668, 752, 710, 799, 827, 585, 660, 738, 645, 603, 611, 683, 759, 587, 665, 656, 659, 622, 574, 603, 614, 611, 632, 592, 646, 608, 524, 508, 538, 684, 667, 601, 655, 613, 458, 566, 673, 676, 711, 666, 619, 576, 535, 598, 688, 667, 655, 641, 580, 565, 593, 654, 672, 618, 584, 528, 676, 654, 614, 596, 649, 720, 537, 572, 586, 577, 504, 598, 684, 721, 582, 690, 538, 574, 635, 643, 689, 670, 706, 667, 561, 567, 577, 600, 555, 567, 594, 696, 657, 614, 587, 548, 630, 536, 559, 505, 634, 643, 519, 430, 588, 600, 481, 535, 619, 627, 531, 514, 559, 551, 502, 610, 658, 659, 643, 577, 488, 518, 546, 582, 706, 670, 674, 647, 563, 639, 580, 509, 613, 603, 621, 625, 621, 701, 642, 565, 648, 748, 649, 510, 676, 772, 659, 482, 564, 627, 581, 538, 629, 649, 561, 563, 548, 573, 576, 619, 634, 605, 618, 641, 520, 494, 613, 667, 534, 546, 634, 727, 600, 615, 656, 620, 530, 599, 749, 650, 657, 656, 658, 654, 592, 529, 617, 630, 695, 530, 537, 631, 631, 552, 585, 640, 647, 588, 541, 583, 587, 530, 614, 604, 595, 579, 590, 555, 558, 517, 514, 638, 592, 646, 653, 630, 605, 554, 599, 600, 587, 634, 593, 517, 517, 500, 580, 585, 577, 595, 562, 483, 509, 482, 456, 567, 598, 673, 606, 531, 591, 505, 471, 560, 547, 567, 572, 557, 591, 575, 509, 639, 626, 583, 626, 707, 650, 575, 655, 644, 569, 537, 583, 691, 586, 512, 616, 535, 443, 467, 570, 674, 635, 548, 574, 588, 525, 504, 597, 721, 716, 620, 579, 631, 599, 554, 604, 663, 653, 639, 614, 569, 554, 528, 611, 648, 553, 545, 620, 641, 562, 638, 671, 674, 646, 611, 668, 679, 678, 637, 616, 579, 688, 639, 607, 675, 671, 598, 551, 594, 650, 633, 607, 642, 639, 620, 580, 589, 549, 574, 632, 626, 620, 607, 643, 672, 553, 563, 664, 596, 615, 567, 652, 655, 639, 585, 584, 646, 653, 546, 593, 641, 586, 598, 597, 613, 560, 489, 467, 585, 586, 506, 586, 518, 469, 530, 454, 454, 539, 563, 574, 439, 422, 507, 456, 478, 504, 524, 557, 438, 423, 484, 462, 467, 434, 417, 515, 430, 468, 460, 455, 484, 468, 463, 474, 512, 518, 467, 465, 518, 549, 494, 465, 444, 502, 469, 431, 450, 461, 502, 475, 406, 503, 486, 477, 475, 435, 499, 438, 324, 398, 478, 419, 349, 315, 415, 429, 318, 462, 473, 414, 445, 422, 434, 375, 367, 439, 464, 364, 386, 446, 403, 362, 369, 410, 423, 349, 377, 384, 354, 379]"
0.5187074542045593,-0.09677642583847046,0.24845793843269348,0.17495134472846985,-0.21089963614940643,0.16348257660865784,0.10333794355392456,-0.12201070785522461,0.6083965301513672,24.0,-0.09468793869018555,0.5354404449462891,29.5,-0.0941157341003418,0.6151199340820312,28.5,-0.029456615447998047,0.7771968841552734,22.75,0.1748204231262207,0.6312847137451172,17.25,"[418, 549, 629, 573, 502, 572, 631, 550, 482, 540, 638, 623, 473, 591, 673, 557, 442, 501, 552, 507, 402, 507, 593, 524, 476, 510, 462, 446, 439, 430, 524, 497, 479, 466, 504, 506, 433, 468, 541, 480, 536, 544, 546, 560, 605, 548, 516, 482, 588, 467, 459, 521, 567, 585, 450, 528, 596, 517, 447, 479, 584, 590, 501, 545, 616, 518, 473, 504, 584, 542, 439, 541, 628, 558, 564, 522, 569, 600, 590, 551, 670, 582, 509, 590, 614, 572, 503, 589, 566, 484, 482, 568, 565, 513, 475, 489, 508, 501, 489, 512, 566, 548, 542, 528, 576, 558, 538, 551, 670, 547, 557, 671, 435, 564, 546, 491, 504, 603, 612, 448, 462, 463, 437, 481, 407, 455, 517, 409, 559, 537, 525, 509, 461, 500, 486, 503, 567, 558, 492, 462, 496, 568, 556, 514, 588, 593, 533, 530, 485, 553, 623, 582, 565, 518, 536, 599, 509, 588, 653, 630, 599, 527, 600, 553, 529, 610, 608, 566, 493, 490, 527, 536, 492, 557, 625, 578, 569, 474, 506, 483, 536, 604, 526, 573, 570, 537, 496, 508, 489, 561, 471, 505, 518, 497, 490, 514, 459, 487, 553, 545, 568, 607, 551, 540, 511, 494, 589, 510, 593, 614, 566, 474, 428, 478, 492, 486, 634, 604, 674, 561, 406, 527, 553, 601, 560, 551, 588, 521, 510, 509, 477, 532, 489, 525, 491, 500, 595, 538, 465, 511, 507, 548, 543, 522, 569, 590, 574, 503, 509, 594, 553, 510, 534, 541, 512, 477, 473, 578, 564, 485, 522, 576, 574, 474, 637, 545, 556, 603, 603, 615, 554, 640, 503, 496, 543, 606, 579, 573, 587, 557, 499, 480, 517, 440, 464, 478, 506, 525, 544, 504, 490, 374, 459, 534, 485, 522, 550, 528, 490, 506, 581, 559, 531, 541, 520, 574, 558, 535, 548, 543, 540, 548, 603, 587, 646, 618, 579, 547, 520, 580, 599, 546, 614, 636, 554, 515, 522, 578, 659, 631, 611, 605, 482, 581, 649, 640, 549, 553, 666, 651, 520, 637, 710, 627, 532, 526, 613, 676, 603, 623, 622, 569, 669, 631, 611, 701, 675, 610, 500, 585, 657, 594, 628, 661, 684, 586, 468, 613, 553, 601, 525, 479, 548, 510, 497, 519, 624, 568, 539, 581, 538, 500, 539, 588, 606, 637, 594, 647, 597, 522, 581, 526, 643, 666, 670, 734, 559, 635, 624, 526, 627, 604, 547, 596, 516, 582, 653, 561, 553, 622, 576, 532, 556, 586, 589, 523, 621, 714, 562, 491, 561, 559, 585, 528, 600, 632, 562, 527, 581, 537, 511, 514, 591, 576, 542, 592, 556, 561, 590, 573, 664, 611, 501, 555, 509, 547, 599, 592, 641, 578, 532, 587, 613, 572, 604, 632, 542, 525, 494, 466, 604, 605, 579, 586, 574, 820, 741, 555, 651, 781, 757, 579, 719, 1277, 1152, 671, 663, 935, 1206, 944, 653, 992, 942, 646, 568, 869, 1114, 888, 648, 603, 719, 625, 574, 606, 740, 737, 756, 585, 740, 731, 551, 569, 707, 815, 955, 1023, 1493, 1011, 613, 888, 1596, 1768, 882, 2203, 2794, 1609, 608, 1938, 3762, 3343, 3571, 5264, 6044, 4017, 2273, 6071, 11970, 10695, 6565, 8537, 9800, 7506, 4102, 10501, 21214, 19121, 5067, 7121, 8234, 6958, 2902, 8937, 17812, 15680, 1793, 3945, 4803, 4093, 602, 5786, 8917, 6619, 1171, 2614, 3271, 2240, 1074, 3964, 4632, 2649, 826, 1715, 2094, 1374, 850, 2142, 2509, 1589, 742, 1010, 1166, 795, 659, 968, 1055, 912, 787, 810, 832, 644, 553, 644, 746, 780, 762, 798, 877, 732, 539, 659, 808, 794, 635, 751, 815, 650, 551, 701, 827, 752, 512, 570, 678, 610, 535, 585, 679, 614, 564, 633, 518, 545, 619, 613, 532, 526, 666, 557, 518, 575, 624, 583, 534, 586, 685, 644, 538, 654, 680, 656, 578, 617, 663, 612, 603, 706, 677, 605, 619, 600, 536, 640, 663, 558, 531, 637, 613, 504, 668, 685, 771, 644, 582, 814, 776, 618, 657, 686, 718, 709, 598, 698, 750, 657, 589, 602, 661, 609, 570, 543, 733, 706, 585, 501, 610, 612, 559, 435, 622, 673, 733, 665, 597, 566, 590, 517, 581, 677, 727, 751, 604, 546, 684, 685, 704, 718, 690, 723, 610, 528, 641, 619, 606, 665, 595, 630, 635, 582, 596, 626, 580, 566, 616, 617, 590, 589, 652, 700, 695, 603, 657, 576, 541, 646, 663, 714, 583, 511, 627, 585, 519, 582, 638, 585, 516, 564, 580, 565, 604, 626, 574, 550, 576, 549, 693, 650, 674, 645, 593, 608, 661, 675, 699, 597, 613, 618, 644, 624, 577, 621, 590, 606, 585, 649, 654, 584, 544, 545, 545, 580, 648, 640, 586, 538, 624, 603, 571, 665, 697, 562, 590, 671, 686, 594, 593, 630, 747, 652, 597, 641, 671, 632, 634, 663, 682, 641, 599, 600, 535, 596, 534, 691, 738, 648, 573, 558, 561, 558, 578, 630, 631, 726, 688, 607, 648, 604, 582, 578, 543, 639, 716, 671, 682, 644, 628, 642, 657, 531, 580, 626, 625, 642, 493, 620, 595, 478, 444, 498, 547, 491, 579, 506, 580, 573, 580, 609, 567, 646, 606, 505, 631, 608, 531, 544, 623, 700, 568, 545, 682, 647, 596, 644, 633, 641, 581, 569, 679, 571, 491, 674, 720, 645, 576, 573, 616, 473, 474, 639, 631, 601, 612, 519, 625, 587, 542, 532, 508, 637, 592, 569, 571, 592, 531, 561, 562, 621, 566, 572, 606, 604, 591, 460, 572, 661, 612, 662, 621, 631, 604, 538, 575, 602, 599, 670, 599, 613, 530, 598, 574, 602, 503, 607, 614, 592, 520, 564, 543, 526, 452, 499, 552, 545, 467, 463, 461, 433, 508, 588, 635, 580, 549, 570, 601, 568, 615, 657, 684, 579, 608, 597, 608, 643, 579, 570, 568, 531, 509, 550, 542, 563, 579, 547, 461, 391, 436, 528, 547, 543, 558, 543, 458, 456, 455, 490, 470, 515, 548, 491, 490, 479, 435, 432, 464, 544, 496, 479, 494, 509, 452, 396, 434, 509, 412, 402, 387, 389, 399, 398, 416, 419, 380, 479, 505, 447, 479, 447, 400, 404, 428, 466, 466, 471, 419, 406, 444, 432, 388, 374, 393, 411, 372, 375, 438, 426]"
0.46202680468559265,-0.08514472842216492,-0.16848407685756683,-0.09410182386636734,-0.16274429857730865,-0.20862948894500732,-0.16164745390415192,-0.18320107460021973,0.9774684906005859,20.75,-0.05130791664123535,0.748443603515625,17.0,0.19545531272888184,0.6279945373535156,20.25,0.2124783992767334,0.464630126953125,17.75,0.23622488975524902,0.47507286071777344,17.75,"[617, 564, 546, 575, 629, 581, 546, 568, 592, 586, 527, 519, 543, 528, 614, 587, 518, 505, 470, 519, 539, 460, 509, 564, 540, 539, 511, 506, 505, 478, 497, 504, 514, 541, 559, 610, 526, 482, 549, 541, 518, 565, 546, 643, 563, 547, 653, 546, 580, 595, 555, 591, 554, 600, 618, 566, 554, 545, 548, 576, 534, 456, 488, 523, 520, 541, 551, 514, 426, 427, 529, 523, 540, 474, 558, 566, 417, 524, 641, 629, 464, 426, 572, 605, 484, 430, 538, 557, 497, 515, 528, 509, 525, 540, 501, 512, 513, 565, 633, 517, 558, 605, 622, 630, 648, 741, 681, 585, 591, 581, 633, 676, 555, 610, 572, 539, 589, 552, 590, 564, 558, 516, 532, 633, 603, 569, 550, 568, 571, 572, 510, 562, 615, 620, 574, 517, 537, 556, 540, 564, 532, 565, 638, 588, 572, 581, 500, 553, 598, 504, 492, 562, 622, 578, 519, 580, 598, 528, 504, 626, 587, 494, 494, 559, 479, 481, 527, 521, 593, 500, 527, 540, 458, 545, 566, 581, 602, 604, 459, 545, 589, 600, 552, 538, 630, 624, 503, 546, 557, 511, 462, 535, 464, 509, 526, 515, 548, 564, 549, 481, 542, 534, 529, 495, 463, 519, 486, 554, 551, 599, 578, 482, 510, 642, 549, 506, 534, 595, 638, 576, 620, 587, 527, 556, 562, 669, 588, 478, 626, 602, 530, 523, 571, 543, 482, 493, 675, 686, 557, 568, 533, 467, 503, 462, 551, 546, 460, 531, 574, 496, 525, 499, 581, 555, 451, 570, 586, 579, 516, 466, 534, 590, 433, 459, 529, 476, 468, 555, 578, 498, 433, 479, 613, 585, 557, 486, 524, 544, 476, 510, 579, 611, 503, 480, 538, 530, 486, 512, 530, 572, 490, 450, 549, 540, 490, 449, 554, 505, 517, 588, 646, 647, 594, 541, 518, 516, 486, 496, 575, 598, 572, 533, 635, 577, 476, 588, 637, 541, 511, 597, 559, 597, 602, 523, 569, 497, 550, 594, 636, 595, 528, 528, 607, 616, 496, 550, 634, 672, 675, 595, 563, 635, 628, 626, 638, 628, 564, 575, 650, 639, 605, 630, 661, 607, 609, 638, 659, 635, 594, 601, 631, 652, 637, 625, 733, 720, 609, 572, 673, 684, 742, 645, 691, 681, 667, 739, 659, 634, 597, 552, 604, 592, 592, 613, 654, 576, 562, 558, 520, 465, 571, 636, 665, 553, 596, 638, 564, 509, 589, 701, 612, 552, 560, 667, 635, 629, 596, 608, 543, 618, 638, 589, 601, 670, 626, 584, 628, 567, 598, 623, 620, 553, 607, 665, 608, 528, 574, 623, 607, 576, 638, 666, 562, 569, 595, 631, 586, 581, 556, 549, 667, 646, 607, 623, 600, 573, 554, 594, 573, 558, 518, 484, 466, 500, 568, 584, 645, 978, 1020, 663, 561, 710, 1044, 872, 725, 1357, 1361, 772, 654, 1000, 1516, 1200, 556, 1071, 1039, 645, 618, 932, 1324, 998, 752, 1018, 1032, 678, 593, 779, 1272, 1188, 892, 1596, 1592, 1067, 722, 1320, 2120, 1763, 840, 1515, 1729, 1300, 754, 1357, 2452, 2182, 821, 1191, 1363, 958, 682, 1222, 2072, 1807, 1287, 2953, 3411, 1945, 940, 3074, 5945, 5089, 2366, 4742, 5884, 3205, 1641, 5007, 10262, 9168, 1700, 3274, 4042, 2164, 1381, 3134, 7044, 6508, 1137, 3928, 3266, 1204, 1055, 3777, 5807, 3961, 1255, 4496, 4037, 1687, 795, 4765, 7295, 5081, 664, 3082, 2977, 1674, 606, 3271, 5274, 3834, 867, 2204, 2133, 1305, 663, 2105, 3172, 2196, 1153, 1594, 1438, 910, 733, 1347, 1841, 1354, 999, 998, 884, 702, 612, 775, 1049, 1011, 756, 730, 776, 653, 620, 678, 847, 850, 705, 1020, 918, 611, 652, 755, 788, 651, 658, 962, 863, 646, 607, 654, 756, 671, 614, 658, 708, 617, 544, 539, 659, 600, 608, 582, 587, 601, 590, 509, 621, 702, 625, 691, 659, 724, 729, 563, 668, 745, 626, 668, 604, 593, 640, 658, 628, 548, 584, 616, 588, 569, 578, 656, 641, 563, 578, 648, 645, 684, 663, 708, 759, 631, 614, 647, 643, 700, 626, 610, 716, 627, 694, 624, 614, 693, 614, 640, 698, 615, 638, 579, 568, 615, 567, 673, 721, 619, 597, 572, 524, 575, 559, 634, 616, 592, 663, 560, 562, 600, 653, 608, 617, 718, 653, 567, 631, 648, 703, 655, 608, 701, 619, 654, 648, 600, 633, 600, 560, 538, 606, 600, 661, 656, 615, 615, 594, 578, 675, 636, 556, 606, 610, 568, 612, 628, 744, 705, 534, 606, 588, 634, 645, 665, 686, 645, 596, 654, 690, 618, 566, 560, 584, 563, 575, 675, 666, 588, 590, 554, 610, 524, 597, 722, 683, 558, 649, 643, 588, 522, 535, 569, 584, 598, 575, 631, 524, 506, 559, 583, 532, 571, 552, 567, 704, 636, 545, 472, 497, 580, 477, 539, 499, 572, 651, 688, 604, 512, 527, 509, 557, 612, 650, 634, 647, 577, 640, 657, 590, 591, 490, 446, 469, 592, 624, 617, 715, 692, 559, 524, 578, 610, 675, 708, 698, 717, 637, 603, 494, 597, 616, 599, 568, 538, 572, 542, 445, 470, 540, 598, 467, 560, 637, 614, 510, 535, 573, 580, 582, 604, 614, 634, 585, 535, 507, 512, 599, 575, 546, 644, 634, 527, 604, 661, 643, 663, 745, 694, 657, 657, 676, 670, 653, 632, 625, 644, 562, 572, 663, 705, 698, 647, 553, 582, 578, 615, 635, 707, 559, 572, 541, 563, 600, 624, 649, 624, 744, 595, 629, 643, 570, 568, 571, 708, 668, 635, 562, 543, 576, 619, 635, 623, 623, 689, 586, 554, 435, 576, 676, 612, 590, 544, 576, 541, 480, 584, 615, 523, 509, 564, 569, 547, 563, 552, 645, 513, 483, 568, 566, 585, 517, 538, 702, 548, 534, 578, 593, 578, 526, 528, 538, 544, 626, 563, 573, 565, 535, 509, 474, 614, 513, 501, 578, 579, 555, 475, 460, 545, 547, 561, 583, 565, 593, 566, 529, 560, 595, 508, 567, 632, 530, 517, 547, 593, 608, 449, 448, 471, 441, 515, 474, 566, 458, 367, 438, 460, 479, 525, 467, 453, 431, 396, 401, 395, 422, 454, 455, 401, 384, 408, 458, 414, 325, 405, 413, 385, 382, 358, 422, 368, 395, 457, 408, 414, 332, 328, 354, 412, 394, 345, 388, 410]"
0.6343988180160522,-0.247714102268219,-0.4057251811027527,0.4746142625808716,-0.5809316635131836,-0.5054942965507507,0.23643577098846436,-0.12668871879577637,0.8228302001953125,15.0,0.01822209358215332,0.8115291595458984,23.0,0.07143712043762207,0.22630691528320312,15.0,0.08517003059387207,0.5918025970458984,24.0,0.09604191780090332,0.4467487335205078,21.0,"[521, 718, 631, 528, 642, 527, 627, 720, 616, 665, 586, 678, 747, 647, 663, 652, 553, 613, 556, 467, 573, 647, 560, 505, 498, 546, 498, 451, 545, 526, 503, 529, 475, 524, 503, 526, 519, 520, 614, 565, 511, 526, 524, 560, 567, 540, 611, 579, 582, 526, 529, 519, 487, 485, 516, 558, 493, 430, 533, 561, 485, 494, 529, 507, 525, 457, 557, 550, 578, 590, 561, 613, 522, 535, 590, 551, 561, 535, 561, 606, 596, 553, 568, 560, 529, 534, 554, 553, 637, 636, 621, 528, 588, 619, 437, 496, 551, 534, 576, 604, 534, 491, 463, 507, 495, 538, 561, 616, 528, 504, 588, 552, 514, 501, 557, 543, 444, 515, 647, 581, 526, 574, 570, 548, 536, 623, 629, 487, 517, 569, 606, 569, 546, 636, 621, 543, 578, 537, 521, 523, 560, 487, 484, 552, 544, 502, 526, 514, 515, 498, 542, 603, 570, 534, 510, 555, 563, 593, 621, 609, 536, 573, 515, 572, 541, 566, 576, 528, 553, 477, 495, 532, 490, 500, 498, 568, 510, 544, 558, 427, 498, 505, 477, 569, 527, 493, 546, 539, 566, 552, 545, 615, 548, 487, 539, 479, 534, 580, 452, 604, 654, 512, 534, 558, 535, 529, 459, 582, 634, 623, 639, 629, 572, 531, 508, 606, 544, 553, 532, 591, 559, 593, 596, 565, 537, 526, 517, 572, 514, 524, 571, 594, 554, 464, 622, 580, 529, 503, 547, 633, 499, 497, 509, 569, 544, 514, 573, 572, 522, 549, 488, 425, 445, 486, 510, 447, 602, 550, 472, 473, 441, 434, 525, 606, 601, 538, 588, 610, 481, 417, 511, 591, 613, 590, 578, 624, 580, 506, 441, 426, 585, 627, 643, 635, 660, 694, 635, 500, 545, 583, 614, 557, 531, 552, 532, 457, 551, 548, 664, 643, 521, 584, 586, 583, 628, 571, 614, 619, 604, 588, 554, 582, 552, 550, 566, 657, 638, 487, 600, 667, 551, 514, 577, 576, 518, 508, 516, 585, 552, 516, 541, 601, 597, 557, 595, 607, 592, 519, 511, 648, 726, 641, 586, 658, 629, 514, 439, 601, 641, 629, 569, 604, 614, 570, 490, 546, 626, 605, 505, 550, 550, 627, 616, 539, 517, 563, 562, 551, 552, 690, 688, 658, 642, 581, 594, 587, 516, 650, 659, 559, 555, 638, 703, 628, 637, 614, 514, 519, 544, 626, 721, 695, 572, 575, 587, 517, 595, 694, 677, 604, 635, 530, 566, 593, 634, 684, 587, 605, 656, 655, 570, 667, 719, 741, 561, 595, 596, 562, 556, 619, 721, 651, 467, 501, 588, 639, 557, 582, 733, 690, 462, 459, 582, 616, 549, 526, 712, 684, 522, 498, 619, 664, 563, 467, 543, 591, 526, 513, 591, 593, 546, 510, 551, 611, 535, 526, 531, 596, 627, 550, 468, 591, 626, 569, 647, 797, 813, 788, 551, 1078, 1468, 1150, 777, 1111, 1444, 1628, 877, 2127, 3306, 2541, 831, 1034, 1394, 1583, 995, 2150, 3003, 2153, 736, 722, 873, 871, 809, 1113, 1130, 832, 1234, 1320, 1024, 839, 790, 1402, 1861, 1618, 3932, 5055, 4486, 3631, 2547, 5947, 9109, 7357, 6229, 7425, 6999, 5910, 4407, 8868, 14099, 11849, 5160, 5127, 4834, 4669, 4010, 5998, 9563, 8672, 2894, 2411, 2764, 2931, 2184, 2667, 5120, 5104, 1266, 1191, 1589, 1439, 899, 1409, 2672, 2557, 755, 826, 1037, 731, 548, 959, 1621, 1525, 674, 824, 1153, 922, 561, 832, 1447, 1373, 828, 790, 998, 878, 632, 635, 1033, 1162, 908, 790, 997, 843, 636, 623, 947, 1162, 821, 794, 932, 722, 656, 685, 877, 1008, 600, 661, 673, 657, 673, 662, 738, 704, 648, 620, 617, 672, 600, 643, 754, 654, 659, 720, 661, 591, 626, 686, 755, 668, 538, 687, 610, 567, 692, 733, 664, 541, 727, 1097, 1299, 799, 699, 1082, 1044, 763, 659, 1545, 2094, 1351, 580, 1216, 1453, 1260, 959, 1367, 1509, 1137, 772, 803, 1063, 918, 1387, 1638, 1421, 910, 1024, 1685, 1438, 998, 1112, 1028, 937, 779, 747, 1126, 905, 763, 720, 709, 627, 671, 676, 609, 639, 592, 654, 609, 563, 679, 742, 605, 531, 557, 632, 607, 617, 670, 731, 664, 544, 568, 555, 648, 620, 614, 701, 694, 715, 652, 550, 665, 661, 614, 664, 715, 715, 607, 654, 616, 667, 715, 624, 689, 694, 627, 578, 539, 660, 744, 574, 528, 540, 557, 677, 670, 654, 707, 788, 798, 684, 642, 588, 724, 653, 575, 674, 692, 700, 704, 635, 634, 681, 656, 662, 639, 614, 707, 629, 617, 687, 669, 625, 621, 587, 644, 642, 682, 671, 606, 572, 642, 678, 625, 562, 528, 627, 600, 592, 565, 505, 582, 560, 483, 494, 575, 540, 463, 565, 625, 545, 508, 544, 531, 522, 411, 576, 686, 637, 680, 659, 594, 560, 651, 739, 683, 665, 686, 590, 613, 683, 701, 711, 718, 692, 597, 644, 733, 693, 725, 673, 700, 576, 556, 649, 691, 661, 573, 612, 662, 561, 553, 634, 608, 543, 480, 589, 659, 584, 538, 492, 522, 579, 609, 626, 656, 697, 631, 503, 534, 641, 657, 591, 629, 647, 619, 572, 669, 720, 675, 576, 561, 627, 576, 552, 580, 631, 643, 593, 602, 589, 435, 504, 665, 579, 554, 581, 610, 709, 586, 633, 726, 642, 628, 642, 697, 537, 534, 653, 666, 612, 549, 597, 605, 604, 658, 650, 691, 686, 684, 676, 625, 604, 611, 593, 633, 629, 670, 700, 632, 659, 546, 613, 661, 527, 598, 608, 664, 604, 521, 595, 569, 498, 537, 533, 543, 578, 557, 557, 551, 474, 603, 544, 496, 619, 558, 535, 490, 489, 545, 483, 541, 522, 502, 514, 577, 563, 512, 483, 555, 467, 518, 570, 558, 497, 533, 524, 519, 546, 561, 588, 534, 602, 656, 575, 528, 470, 521, 539, 587, 545, 575, 531, 438, 509, 530, 567, 565, 534, 521, 550, 550, 520, 552, 610, 540, 422, 513, 624, 594, 515, 513, 563, 486, 480, 497, 572, 602, 520, 496, 494, 502, 499, 505, 549, 546, 389, 452, 406, 368, 477, 487, 487, 428, 353, 374, 365, 394, 391, 413, 443, 392, 440, 461, 453, 394, 428, 471, 435, 407, 422, 449, 475, 445, 462, 462, 416, 389, 446, 371, 369, 425, 487, 421, 409, 460]"
0.5976877212524414,-0.4584779143333435,-0.27609896659851074,0.15226057171821594,-0.6059614419937134,-0.2055908590555191,-0.17268037796020508,-0.06767439842224121,0.7779121398925781,17.25,-0.023328542709350586,0.5729198455810547,31.0,-0.016462087631225586,0.5709171295166016,28.5,0.07866692543029785,0.21600723266601562,26.5,0.24088692665100098,0.6945133209228516,15.25,"[449, 579, 727, 639, 530, 639, 726, 581, 536, 536, 685, 754, 588, 593, 674, 646, 671, 568, 581, 696, 658, 579, 553, 643, 653, 618, 441, 503, 651, 613, 499, 533, 641, 541, 536, 541, 603, 575, 614, 618, 559, 513, 464, 520, 508, 493, 566, 515, 540, 464, 487, 571, 616, 551, 487, 494, 486, 516, 495, 546, 583, 561, 521, 501, 508, 547, 540, 523, 571, 558, 570, 526, 576, 476, 542, 550, 555, 628, 599, 536, 539, 611, 561, 544, 511, 562, 512, 468, 637, 630, 549, 526, 561, 606, 549, 575, 567, 476, 549, 528, 448, 447, 516, 583, 544, 529, 588, 543, 453, 484, 565, 596, 498, 452, 502, 567, 512, 473, 572, 563, 572, 499, 538, 650, 605, 547, 573, 601, 544, 461, 505, 584, 536, 540, 504, 568, 541, 500, 617, 686, 629, 582, 579, 630, 561, 611, 601, 506, 543, 523, 471, 532, 468, 597, 630, 506, 458, 524, 524, 491, 492, 616, 656, 538, 549, 571, 555, 524, 544, 555, 581, 610, 620, 645, 530, 519, 551, 625, 585, 609, 677, 613, 564, 577, 587, 618, 617, 617, 631, 675, 635, 564, 509, 643, 675, 644, 603, 652, 637, 520, 533, 575, 655, 563, 579, 682, 628, 511, 548, 550, 571, 612, 505, 612, 638, 531, 595, 536, 556, 537, 569, 680, 557, 487, 467, 471, 565, 504, 526, 583, 545, 544, 562, 543, 582, 562, 597, 604, 594, 575, 493, 574, 577, 558, 599, 592, 552, 544, 487, 527, 548, 609, 576, 524, 520, 569, 505, 509, 536, 577, 510, 512, 498, 480, 638, 549, 580, 640, 610, 651, 590, 556, 620, 603, 508, 499, 570, 721, 616, 522, 518, 585, 622, 519, 545, 647, 576, 515, 618, 662, 648, 614, 571, 594, 515, 516, 509, 548, 530, 554, 557, 513, 590, 540, 574, 482, 478, 620, 589, 559, 564, 534, 658, 512, 559, 623, 614, 615, 540, 611, 637, 596, 563, 658, 700, 650, 581, 585, 455, 632, 580, 520, 597, 633, 612, 483, 476, 532, 643, 631, 656, 672, 627, 561, 694, 695, 623, 587, 564, 655, 626, 690, 559, 605, 557, 569, 581, 483, 540, 544, 586, 512, 524, 643, 627, 514, 523, 608, 519, 562, 560, 579, 518, 576, 560, 534, 656, 643, 467, 545, 600, 535, 451, 473, 666, 623, 560, 572, 609, 520, 464, 559, 706, 684, 567, 545, 612, 487, 495, 632, 657, 640, 606, 606, 558, 485, 503, 604, 611, 600, 575, 582, 548, 585, 519, 604, 596, 537, 615, 585, 594, 565, 536, 604, 597, 559, 637, 601, 556, 562, 616, 647, 623, 568, 570, 605, 639, 583, 528, 601, 561, 567, 546, 558, 631, 613, 584, 601, 597, 644, 538, 548, 627, 615, 554, 565, 570, 639, 657, 706, 578, 724, 871, 692, 744, 882, 961, 968, 621, 855, 1106, 836, 748, 1131, 1275, 1012, 558, 832, 1063, 851, 1032, 2216, 2351, 1583, 911, 2276, 3879, 3178, 4140, 5782, 6498, 5203, 2953, 7361, 14350, 12700, 6155, 7900, 9451, 7998, 4376, 10186, 20924, 18875, 3363, 5781, 7299, 6242, 2776, 6880, 14129, 12403, 1217, 3422, 3998, 2917, 705, 3283, 5043, 3468, 1774, 2758, 2215, 1178, 913, 2519, 2870, 1456, 1407, 3863, 3759, 1750, 648, 3435, 5563, 4114, 1632, 4291, 3747, 1408, 1004, 3814, 5551, 3616, 2455, 3138, 2228, 974, 1618, 3496, 3841, 2197, 1953, 2236, 1956, 1172, 1204, 2244, 2762, 2302, 1121, 1784, 1540, 822, 778, 1549, 2146, 1552, 1052, 1527, 1160, 757, 794, 1198, 1431, 912, 773, 1012, 883, 691, 670, 775, 802, 576, 709, 1170, 1174, 693, 597, 745, 1044, 858, 937, 1378, 1199, 797, 578, 868, 1334, 941, 758, 931, 764, 606, 528, 713, 978, 659, 775, 832, 630, 598, 543, 715, 812, 605, 990, 944, 646, 696, 669, 870, 889, 655, 881, 956, 679, 630, 588, 912, 958, 649, 748, 895, 764, 636, 648, 787, 770, 576, 700, 799, 593, 548, 635, 639, 608, 546, 786, 762, 716, 683, 671, 720, 633, 622, 848, 821, 763, 772, 657, 703, 570, 659, 707, 595, 682, 732, 617, 652, 635, 593, 563, 477, 571, 551, 539, 553, 505, 513, 628, 621, 565, 518, 626, 646, 614, 544, 649, 667, 662, 656, 637, 733, 675, 653, 635, 618, 588, 581, 521, 569, 552, 551, 705, 680, 612, 595, 600, 598, 561, 624, 786, 746, 717, 646, 767, 782, 741, 762, 656, 687, 676, 581, 683, 671, 742, 761, 608, 651, 703, 543, 575, 554, 607, 730, 653, 673, 602, 386, 599, 640, 597, 622, 694, 665, 663, 556, 644, 711, 720, 704, 612, 645, 647, 639, 578, 620, 720, 654, 584, 572, 626, 599, 582, 634, 667, 666, 537, 576, 681, 647, 634, 740, 680, 559, 588, 649, 762, 629, 523, 696, 752, 615, 616, 605, 658, 554, 479, 525, 540, 568, 628, 647, 654, 557, 515, 635, 567, 616, 657, 574, 653, 667, 658, 703, 697, 720, 721, 745, 693, 683, 646, 609, 753, 727, 775, 729, 700, 665, 702, 636, 676, 855, 675, 749, 632, 545, 691, 677, 768, 752, 657, 682, 521, 535, 591, 635, 687, 622, 641, 610, 546, 481, 499, 550, 666, 688, 605, 590, 567, 561, 587, 560, 656, 700, 705, 642, 546, 640, 663, 663, 584, 604, 717, 550, 526, 660, 624, 578, 555, 584, 699, 593, 645, 758, 714, 543, 668, 697, 734, 612, 606, 769, 679, 558, 701, 766, 743, 609, 590, 738, 716, 579, 609, 726, 600, 574, 603, 666, 631, 559, 566, 635, 716, 659, 667, 649, 620, 598, 701, 774, 616, 615, 581, 596, 611, 538, 537, 539, 593, 629, 539, 565, 513, 568, 560, 463, 539, 565, 569, 528, 491, 670, 703, 548, 590, 593, 706, 616, 494, 737, 737, 645, 653, 639, 658, 577, 500, 566, 611, 662, 505, 566, 576, 619, 582, 548, 547, 537, 434, 523, 551, 491, 517, 533, 530, 475, 453, 475, 533, 545, 491, 472, 487, 473, 392, 424, 454, 410, 352, 396, 431, 403, 449, 471, 467, 483, 464, 374, 426, 475, 383, 382, 382, 405, 455, 386, 398, 449, 512, 402, 421, 427, 515, 475, 395, 461, 399, 429, 431, 388, 458, 497, 391, 398, 371, 415, 395, 358, 408, 399, 399, 376]"
0.6311379075050354,0.06352072954177856,0.017888225615024567,0.16227571666240692,0.45903655886650085,0.46203112602233887,0.05708707123994827,-0.057627081871032715,0.7264137268066406,28.5,-0.0036967992782592773,0.5830764770507812,31.75,0.003026604652404785,0.6455898284912109,16.0,0.00388491153717041,0.5846500396728516,28.0,0.051091790199279785,0.5899429321289062,16.25,"[597, 563, 553, 559, 564, 557, 556, 568, 592, 493, 570, 600, 522, 522, 591, 664, 521, 460, 514, 532, 479, 498, 533, 511, 507, 512, 511, 539, 495, 459, 528, 530, 502, 473, 468, 524, 472, 501, 526, 527, 440, 524, 603, 582, 456, 524, 534, 445, 491, 565, 593, 504, 605, 627, 587, 515, 519, 582, 511, 487, 619, 610, 571, 561, 472, 547, 545, 439, 528, 595, 562, 521, 498, 595, 659, 577, 540, 613, 572, 473, 552, 533, 554, 607, 538, 506, 568, 531, 542, 484, 602, 593, 572, 567, 547, 609, 577, 570, 465, 484, 530, 552, 550, 553, 594, 603, 588, 567, 539, 517, 516, 565, 476, 497, 582, 627, 483, 452, 573, 530, 532, 523, 504, 576, 561, 537, 542, 523, 488, 605, 604, 633, 620, 583, 601, 494, 545, 569, 624, 642, 594, 613, 612, 547, 623, 521, 516, 591, 571, 465, 529, 661, 562, 449, 520, 550, 517, 556, 551, 550, 488, 516, 518, 534, 506, 506, 567, 521, 637, 624, 603, 613, 596, 578, 594, 613, 675, 612, 579, 573, 547, 528, 567, 591, 649, 592, 505, 582, 555, 494, 456, 532, 568, 517, 556, 615, 538, 490, 557, 566, 581, 587, 600, 582, 560, 567, 583, 582, 505, 559, 575, 529, 571, 623, 505, 489, 511, 521, 556, 550, 475, 501, 530, 533, 559, 493, 459, 559, 562, 523, 542, 564, 571, 522, 502, 551, 620, 597, 587, 535, 665, 590, 542, 636, 623, 507, 548, 628, 678, 653, 563, 629, 534, 505, 580, 688, 546, 620, 585, 614, 519, 497, 540, 486, 498, 648, 643, 595, 497, 463, 503, 485, 470, 566, 610, 541, 484, 465, 490, 481, 562, 571, 484, 484, 464, 526, 536, 498, 516, 475, 514, 524, 405, 479, 494, 476, 593, 550, 467, 418, 511, 576, 551, 555, 578, 567, 537, 555, 604, 620, 594, 557, 543, 591, 643, 654, 620, 613, 623, 610, 574, 628, 625, 563, 593, 636, 620, 587, 616, 652, 663, 628, 674, 730, 711, 620, 573, 656, 605, 564, 619, 646, 598, 540, 482, 604, 610, 571, 606, 553, 618, 621, 626, 621, 635, 621, 579, 530, 609, 650, 602, 605, 658, 645, 536, 602, 637, 598, 593, 542, 603, 587, 568, 578, 556, 612, 606, 498, 577, 641, 665, 602, 618, 678, 597, 546, 611, 618, 597, 605, 535, 595, 588, 609, 590, 557, 639, 640, 554, 573, 585, 645, 543, 578, 744, 611, 497, 572, 696, 685, 681, 647, 705, 731, 690, 695, 681, 590, 585, 667, 629, 617, 653, 701, 647, 696, 656, 650, 623, 581, 692, 667, 635, 641, 680, 690, 566, 564, 600, 638, 570, 535, 663, 707, 569, 464, 567, 625, 557, 588, 670, 701, 581, 548, 591, 561, 641, 673, 700, 712, 616, 575, 651, 649, 797, 737, 779, 873, 587, 897, 1377, 1257, 1146, 863, 1062, 1511, 1019, 1418, 2788, 2633, 863, 841, 1002, 1273, 997, 1420, 2362, 2084, 1521, 1694, 1785, 1669, 1247, 2344, 3865, 3359, 5214, 6251, 7510, 5945, 3751, 7930, 16575, 15292, 8238, 10322, 13194, 10074, 6021, 12702, 28136, 26147, 5277, 7444, 9711, 7367, 4167, 8765, 19704, 18205, 1291, 2293, 2962, 2430, 1149, 2615, 5329, 4696, 800, 1300, 1504, 1027, 680, 980, 1713, 1680, 716, 1523, 1718, 1098, 671, 1185, 1916, 1665, 478, 1349, 1475, 915, 532, 1041, 1640, 1276, 587, 976, 1120, 806, 588, 693, 844, 754, 577, 778, 837, 681, 618, 756, 804, 629, 671, 869, 862, 643, 585, 680, 779, 640, 1006, 1082, 758, 567, 589, 812, 707, 554, 1016, 987, 766, 631, 653, 626, 735, 823, 594, 569, 758, 690, 534, 554, 779, 797, 537, 766, 927, 710, 577, 665, 795, 694, 536, 971, 999, 606, 502, 802, 924, 670, 719, 1219, 1286, 894, 614, 810, 1086, 920, 658, 1201, 1368, 934, 637, 828, 1167, 998, 710, 903, 1122, 898, 711, 816, 930, 874, 608, 697, 803, 756, 651, 707, 748, 712, 782, 708, 714, 694, 691, 791, 771, 714, 656, 583, 651, 728, 646, 686, 691, 630, 688, 640, 744, 799, 650, 668, 701, 692, 611, 542, 676, 755, 634, 580, 627, 641, 653, 619, 596, 599, 699, 613, 565, 645, 562, 574, 626, 630, 615, 610, 707, 696, 616, 583, 637, 587, 600, 684, 746, 662, 720, 712, 688, 653, 577, 642, 699, 763, 638, 701, 707, 661, 651, 651, 642, 622, 572, 562, 584, 686, 704, 672, 726, 645, 673, 693, 576, 633, 626, 764, 751, 662, 617, 612, 698, 628, 578, 697, 677, 553, 841, 704, 618, 656, 799, 716, 548, 765, 914, 732, 711, 620, 811, 828, 574, 814, 931, 779, 738, 748, 744, 781, 569, 827, 805, 709, 696, 690, 750, 764, 584, 707, 908, 673, 696, 764, 906, 913, 592, 754, 730, 553, 650, 666, 696, 818, 691, 690, 647, 606, 659, 676, 551, 639, 678, 600, 606, 626, 617, 569, 552, 613, 703, 666, 621, 615, 604, 596, 694, 708, 644, 625, 645, 667, 660, 696, 720, 613, 545, 531, 656, 645, 704, 702, 585, 652, 591, 545, 648, 671, 609, 584, 635, 591, 574, 581, 573, 604, 595, 631, 643, 555, 599, 620, 570, 663, 710, 628, 565, 664, 669, 625, 631, 702, 691, 710, 698, 618, 682, 686, 653, 743, 734, 673, 679, 641, 793, 792, 650, 681, 695, 543, 572, 572, 728, 787, 563, 565, 515, 473, 566, 539, 586, 681, 622, 557, 613, 597, 631, 542, 523, 693, 587, 582, 558, 652, 600, 485, 459, 552, 681, 666, 648, 657, 570, 524, 583, 638, 687, 584, 534, 562, 556, 525, 546, 608, 578, 463, 550, 629, 579, 527, 590, 614, 549, 542, 642, 647, 610, 651, 704, 648, 571, 536, 600, 677, 605, 610, 748, 782, 575, 442, 500, 581, 555, 476, 514, 612, 484, 398, 371, 501, 528, 434, 514, 563, 469, 396, 488, 489, 468, 411, 463, 538, 518, 544, 548, 524, 465, 506, 484, 487, 503, 506, 474, 408, 437, 525, 442, 453, 533, 489, 525, 522, 541, 508, 471, 514, 473, 438, 467, 445, 376, 384, 391, 426, 431, 487, 478, 408, 341, 376, 436, 451, 359, 397, 445, 384, 373, 392, 455, 413, 425, 382, 438, 494, 454, 374, 449, 488]"
0.46587562561035156,0.14561264216899872,0.2781955599784851,0.13304345309734344,0.2334662675857544,0.5703637599945068,0.16501328349113464,-1.8205156326293945,2.419567108154297,16.0,-0.057839393615722656,0.6650447845458984,26.75,-0.04167461395263672,0.5933761596679688,21.5,-0.04110240936279297,0.5896568298339844,25.0,0.23698902130126953,-0.2318859100341797,16.5,"[547, 548, 627, 642, 718, 641, 629, 546, 604, 601, 604, 625, 680, 707, 712, 614, 469, 537, 594, 615, 601, 593, 621, 568, 458, 454, 519, 483, 467, 547, 567, 547, 432, 511, 620, 514, 469, 563, 562, 495, 550, 590, 632, 565, 567, 582, 592, 557, 611, 489, 464, 544, 545, 560, 555, 584, 513, 511, 544, 495, 500, 466, 512, 581, 503, 508, 508, 601, 627, 546, 535, 548, 441, 487, 566, 531, 491, 529, 516, 539, 578, 519, 473, 456, 489, 613, 555, 522, 611, 530, 383, 479, 565, 552, 543, 538, 565, 607, 533, 469, 500, 453, 491, 481, 538, 545, 493, 548, 518, 478, 501, 557, 584, 546, 592, 572, 483, 480, 474, 548, 590, 536, 551, 605, 510, 431, 501, 589, 558, 476, 494, 497, 469, 478, 524, 584, 617, 564, 515, 544, 550, 509, 551, 553, 490, 674, 602, 493, 517, 587, 612, 466, 545, 575, 494, 550, 621, 535, 470, 488, 512, 600, 622, 576, 482, 576, 647, 543, 587, 633, 689, 591, 468, 673, 655, 570, 617, 597, 514, 474, 521, 653, 533, 475, 619, 664, 559, 496, 541, 629, 524, 527, 528, 567, 574, 477, 477, 571, 533, 534, 430, 503, 523, 542, 499, 576, 563, 449, 495, 508, 523, 555, 655, 646, 621, 567, 487, 572, 595, 488, 579, 591, 573, 548, 549, 580, 539, 479, 524, 553, 514, 487, 526, 624, 549, 458, 480, 510, 551, 561, 616, 649, 581, 496, 495, 488, 495, 546, 576, 537, 555, 514, 544, 604, 638, 582, 565, 535, 550, 510, 537, 623, 651, 549, 605, 656, 615, 493, 600, 689, 640, 553, 590, 619, 606, 570, 602, 631, 595, 583, 564, 558, 587, 579, 550, 492, 572, 621, 544, 543, 506, 520, 560, 495, 537, 595, 655, 690, 640, 605, 623, 603, 593, 570, 620, 645, 602, 621, 566, 512, 510, 575, 588, 601, 583, 592, 563, 564, 601, 561, 515, 494, 490, 489, 446, 422, 466, 501, 481, 468, 487, 506, 451, 472, 496, 496, 562, 540, 575, 569, 553, 540, 608, 530, 474, 494, 656, 564, 461, 498, 541, 650, 566, 515, 609, 596, 502, 530, 614, 673, 627, 642, 542, 609, 670, 640, 587, 535, 532, 638, 648, 652, 598, 594, 580, 509, 593, 651, 589, 555, 526, 574, 560, 556, 591, 534, 591, 593, 613, 530, 514, 654, 530, 537, 597, 627, 534, 584, 690, 611, 589, 568, 537, 681, 687, 624, 646, 640, 572, 535, 583, 692, 713, 560, 669, 716, 598, 565, 493, 543, 659, 555, 488, 666, 584, 623, 609, 523, 528, 586, 635, 631, 557, 603, 574, 578, 644, 752, 721, 639, 452, 485, 572, 575, 606, 616, 521, 543, 424, 547, 574, 544, 533, 556, 604, 468, 710, 995, 924, 641, 610, 739, 958, 836, 1010, 1791, 1665, 991, 615, 1121, 1611, 1096, 1057, 1924, 1864, 1291, 673, 1461, 2246, 1615, 1028, 1513, 1726, 1320, 767, 1581, 2967, 2628, 833, 948, 1254, 968, 736, 1065, 1961, 1905, 1303, 1837, 2107, 1403, 1026, 1827, 3658, 3390, 3867, 6396, 7826, 4164, 2534, 6513, 13861, 12712, 5455, 9794, 12287, 6228, 3309, 10103, 21286, 19374, 3518, 5463, 7215, 3958, 2201, 5782, 12655, 11807, 1088, 2347, 2334, 970, 867, 1909, 3995, 3600, 1136, 4178, 3798, 1456, 891, 2702, 4927, 3547, 1349, 3333, 3255, 1628, 1212, 1944, 3231, 2475, 3449, 3144, 3940, 2650, 2627, 2765, 2517, 3945, 4243, 3540, 4452, 3050, 3341, 3874, 2447, 4224, 2340, 2540, 2710, 1600, 1894, 2265, 1540, 2177, 1051, 1611, 1374, 737, 791, 915, 1027, 751, 711, 903, 774, 637, 648, 682, 831, 707, 628, 663, 740, 633, 506, 584, 776, 766, 615, 593, 712, 625, 562, 595, 584, 688, 664, 609, 590, 608, 660, 678, 648, 703, 666, 694, 642, 576, 617, 661, 639, 620, 608, 623, 684, 633, 684, 676, 676, 675, 702, 785, 915, 746, 693, 728, 771, 841, 574, 650, 782, 522, 471, 658, 757, 793, 574, 608, 772, 603, 550, 679, 717, 685, 602, 571, 524, 593, 583, 624, 639, 566, 750, 679, 601, 693, 674, 621, 651, 701, 735, 688, 719, 670, 652, 601, 634, 673, 655, 642, 710, 684, 614, 616, 670, 672, 689, 677, 677, 655, 553, 567, 629, 676, 652, 652, 660, 696, 668, 605, 532, 609, 619, 506, 535, 659, 612, 496, 425, 556, 550, 519, 541, 598, 596, 516, 513, 583, 563, 592, 536, 554, 638, 638, 577, 552, 646, 666, 562, 553, 590, 627, 602, 543, 701, 659, 700, 719, 699, 686, 607, 696, 662, 609, 690, 710, 577, 628, 644, 600, 590, 546, 651, 607, 519, 597, 677, 683, 557, 555, 695, 667, 493, 640, 714, 669, 565, 526, 607, 581, 531, 569, 647, 666, 655, 682, 689, 588, 653, 645, 643, 679, 672, 739, 739, 693, 650, 601, 694, 666, 654, 664, 681, 670, 631, 659, 600, 477, 626, 526, 517, 585, 554, 609, 544, 565, 590, 571, 578, 565, 500, 571, 623, 571, 534, 626, 722, 641, 446, 540, 697, 610, 610, 665, 707, 682, 582, 549, 701, 661, 589, 580, 647, 618, 571, 609, 687, 660, 570, 610, 590, 612, 646, 588, 603, 585, 537, 645, 641, 600, 526, 602, 588, 527, 629, 692, 726, 694, 633, 634, 625, 681, 703, 599, 682, 689, 646, 597, 734, 804, 697, 680, 674, 649, 689, 577, 620, 720, 553, 594, 639, 612, 558, 601, 642, 610, 609, 455, 601, 685, 599, 551, 658, 680, 537, 560, 577, 531, 580, 586, 608, 596, 580, 612, 649, 576, 510, 572, 633, 700, 676, 580, 593, 527, 552, 614, 621, 708, 698, 563, 596, 650, 623, 594, 613, 711, 587, 562, 620, 647, 591, 524, 554, 594, 489, 430, 534, 595, 537, 470, 497, 524, 461, 500, 492, 465, 538, 537, 461, 430, 503, 470, 412, 497, 554, 550, 499, 455, 456, 395, 473, 514, 490, 414, 423, 468, 434, 446, 486, 529, 499, 439, 482, 487, 475, 537, 579, 522, 496, 490, 564, 485, 510, 454, 469, 486, 430, 492, 513, 464, 465, 362, 383, 478, 451, 443, 481, 479, 482, 424, 469, 512, 510, 388, 367, 498, 427, 336, 385, 409, 371, 363, 373, 464, 469, 446, 417, 405, 415, 418, 456, 451]"
0.4467199742794037,0.045529406517744064,0.37642574310302734,0.06276043504476547,0.0029995590448379517,0.4951068162918091,0.049101199954748154,-0.0859755277633667,0.3739356994628906,17.0,-0.07696330547332764,-0.2273082733154297,17.5,-0.0745314359664917,0.5925178527832031,18.5,-0.0344771146774292,0.5151271820068359,17.0,0.28195202350616455,0.3177165985107422,15.25,"[570, 647, 658, 693, 802, 692, 660, 652, 570, 598, 617, 673, 816, 797, 656, 590, 563, 632, 578, 559, 598, 644, 545, 477, 492, 492, 478, 476, 499, 532, 520, 480, 496, 559, 539, 472, 603, 583, 500, 527, 464, 460, 529, 557, 503, 472, 502, 531, 509, 497, 576, 607, 455, 470, 493, 468, 485, 593, 624, 544, 535, 579, 555, 469, 488, 515, 578, 465, 470, 561, 495, 507, 488, 505, 486, 460, 489, 471, 501, 521, 600, 539, 472, 538, 545, 504, 458, 500, 653, 582, 522, 544, 599, 558, 499, 544, 496, 510, 551, 535, 536, 532, 483, 475, 448, 484, 559, 546, 548, 472, 490, 515, 524, 570, 554, 548, 574, 451, 424, 561, 512, 541, 495, 484, 561, 527, 498, 532, 523, 542, 467, 459, 570, 481, 427, 509, 537, 529, 544, 572, 447, 491, 579, 547, 586, 474, 486, 490, 554, 530, 513, 582, 591, 592, 588, 534, 552, 546, 634, 604, 517, 570, 538, 496, 548, 566, 542, 456, 532, 543, 481, 505, 548, 556, 445, 389, 564, 524, 464, 489, 525, 563, 489, 500, 638, 609, 607, 600, 551, 600, 562, 511, 585, 590, 597, 545, 570, 610, 587, 580, 608, 547, 524, 522, 556, 474, 565, 619, 527, 578, 620, 576, 485, 472, 556, 556, 533, 553, 577, 463, 417, 487, 522, 525, 547, 517, 551, 501, 498, 555, 482, 512, 492, 498, 548, 540, 541, 552, 518, 524, 489, 485, 484, 528, 524, 513, 471, 520, 555, 531, 574, 622, 515, 422, 454, 558, 581, 509, 484, 534, 539, 509, 410, 503, 510, 468, 524, 536, 489, 575, 611, 515, 519, 507, 471, 430, 472, 591, 527, 504, 563, 578, 496, 464, 497, 544, 530, 498, 534, 613, 611, 554, 544, 585, 550, 462, 527, 699, 722, 634, 621, 616, 519, 489, 575, 615, 591, 563, 499, 565, 480, 545, 599, 479, 559, 600, 566, 561, 570, 649, 616, 429, 520, 585, 601, 553, 597, 691, 652, 478, 447, 561, 547, 547, 553, 602, 525, 592, 533, 550, 523, 516, 583, 516, 642, 705, 534, 506, 701, 658, 503, 530, 587, 595, 523, 503, 630, 620, 558, 589, 628, 563, 507, 598, 694, 611, 505, 538, 682, 607, 583, 664, 673, 673, 581, 630, 699, 623, 548, 594, 653, 710, 600, 615, 629, 588, 497, 578, 533, 593, 560, 493, 501, 504, 584, 588, 576, 540, 547, 503, 593, 623, 575, 614, 558, 528, 505, 543, 584, 563, 563, 596, 650, 598, 547, 620, 609, 642, 603, 542, 697, 611, 571, 677, 636, 725, 700, 560, 603, 653, 679, 658, 617, 649, 656, 604, 635, 640, 648, 615, 583, 629, 662, 680, 653, 658, 599, 609, 589, 610, 686, 678, 663, 643, 629, 621, 544, 695, 712, 688, 697, 630, 676, 680, 630, 1107, 1068, 663, 579, 798, 1076, 851, 855, 1869, 1693, 783, 661, 1246, 1695, 1138, 864, 1407, 1251, 658, 673, 951, 1105, 894, 638, 544, 625, 584, 578, 553, 576, 762, 717, 1101, 1467, 919, 569, 806, 1636, 1692, 859, 2742, 3393, 2137, 832, 2607, 4806, 4031, 1742, 3075, 3638, 2893, 1494, 3387, 6879, 6052, 2221, 1843, 2529, 2325, 1705, 2265, 5898, 5888, 1949, 1393, 2074, 1646, 1266, 1606, 4352, 4565, 1495, 1248, 1519, 1462, 1134, 1134, 2740, 2825, 1288, 2178, 1866, 1560, 967, 2066, 3179, 2240, 926, 2217, 1968, 1380, 702, 2423, 3419, 2182, 666, 1133, 1128, 915, 579, 1507, 1985, 1328, 626, 772, 717, 622, 663, 852, 789, 538, 710, 937, 723, 629, 694, 696, 796, 737, 798, 826, 621, 611, 706, 688, 672, 661, 703, 654, 672, 665, 618, 685, 640, 661, 596, 601, 575, 531, 452, 512, 565, 600, 573, 575, 588, 547, 465, 591, 619, 544, 491, 556, 637, 597, 513, 565, 581, 550, 579, 522, 526, 521, 619, 566, 486, 586, 627, 605, 551, 533, 728, 701, 551, 683, 711, 668, 568, 601, 698, 717, 654, 678, 720, 642, 619, 680, 676, 560, 590, 655, 671, 642, 645, 599, 566, 578, 524, 598, 716, 651, 611, 590, 595, 627, 647, 630, 612, 585, 566, 574, 545, 636, 702, 660, 623, 477, 524, 661, 551, 578, 628, 675, 641, 672, 710, 689, 563, 570, 708, 720, 574, 664, 679, 623, 530, 574, 661, 661, 558, 622, 703, 658, 518, 578, 660, 621, 547, 604, 720, 726, 486, 606, 737, 658, 594, 734, 783, 716, 547, 559, 630, 647, 643, 648, 702, 649, 587, 588, 633, 599, 628, 728, 776, 690, 661, 661, 689, 680, 719, 656, 720, 653, 714, 681, 701, 746, 702, 625, 641, 529, 608, 678, 567, 629, 685, 636, 589, 513, 548, 612, 595, 628, 609, 686, 553, 466, 632, 624, 550, 531, 556, 615, 659, 672, 571, 602, 614, 592, 718, 621, 625, 713, 685, 632, 560, 656, 649, 551, 593, 627, 689, 628, 472, 599, 610, 627, 712, 584, 630, 616, 585, 692, 709, 668, 662, 638, 615, 596, 663, 755, 683, 599, 661, 661, 573, 574, 678, 715, 589, 568, 600, 592, 583, 549, 610, 632, 489, 598, 539, 533, 561, 562, 624, 567, 591, 611, 590, 572, 560, 549, 639, 630, 612, 536, 571, 622, 602, 607, 651, 645, 618, 590, 621, 605, 650, 630, 595, 608, 639, 525, 536, 627, 579, 492, 568, 635, 571, 466, 543, 583, 571, 514, 572, 605, 681, 554, 534, 631, 581, 588, 697, 748, 675, 700, 679, 693, 570, 595, 624, 669, 584, 511, 484, 629, 594, 553, 559, 576, 510, 522, 535, 554, 528, 563, 487, 474, 660, 514, 553, 615, 580, 539, 492, 583, 548, 554, 573, 558, 493, 554, 555, 558, 425, 626, 574, 434, 452, 528, 571, 404, 457, 595, 661, 549, 491, 554, 611, 510, 484, 524, 568, 516, 507, 498, 520, 537, 483, 441, 522, 561, 517, 523, 524, 494, 470, 510, 481, 444, 421, 479, 451, 434, 507, 515, 411, 471, 500, 516, 467, 449, 431, 430, 477, 421, 433, 524, 472, 482, 495, 362, 373, 443, 514, 449, 399, 505, 400, 355, 385, 429, 430, 380, 372, 443, 357, 360, 351, 368, 347, 326, 363, 351, 452, 391, 418, 435, 422, 365, 435, 515, 421, 423, 506, 531, 467, 474, 503, 479]"
0.5391643643379211,0.23483452200889587,-0.2532798945903778,0.799353837966919,0.1439191699028015,-0.2968578338623047,0.5776792168617249,-0.13846075534820557,0.8162498474121094,21.25,-0.12959158420562744,0.8039474487304688,17.75,-0.044762253761291504,0.6447315216064453,18.5,0.010312438011169434,0.5237102508544922,19.75,0.05108201503753662,0.21314620971679688,18.75,"[678, 593, 586, 593, 626, 589, 581, 596, 627, 583, 593, 564, 569, 586, 604, 628, 640, 586, 596, 586, 624, 538, 555, 557, 467, 490, 512, 520, 495, 559, 535, 444, 445, 419, 418, 495, 478, 491, 520, 505, 588, 475, 512, 556, 528, 550, 605, 612, 538, 485, 480, 502, 468, 461, 515, 553, 508, 479, 539, 561, 481, 462, 512, 592, 501, 541, 572, 528, 521, 630, 663, 600, 531, 598, 569, 538, 559, 593, 561, 481, 579, 612, 565, 556, 606, 633, 558, 506, 513, 559, 549, 518, 574, 642, 588, 469, 446, 487, 512, 512, 519, 513, 438, 406, 565, 588, 536, 570, 587, 599, 588, 471, 551, 550, 539, 622, 629, 565, 517, 515, 555, 645, 573, 557, 610, 597, 625, 552, 588, 578, 484, 507, 564, 530, 552, 579, 529, 537, 570, 517, 509, 535, 498, 545, 508, 609, 571, 587, 619, 528, 491, 518, 508, 608, 597, 491, 523, 573, 563, 481, 543, 513, 586, 536, 490, 628, 586, 499, 557, 526, 531, 489, 482, 591, 549, 490, 546, 535, 530, 561, 521, 555, 497, 520, 588, 613, 594, 615, 690, 581, 442, 552, 636, 566, 509, 566, 639, 530, 432, 587, 565, 584, 534, 505, 593, 560, 541, 600, 560, 463, 449, 570, 565, 517, 585, 625, 551, 472, 419, 508, 476, 528, 592, 579, 519, 528, 509, 501, 522, 574, 549, 512, 486, 608, 551, 526, 479, 629, 671, 504, 566, 551, 542, 532, 570, 587, 659, 649, 509, 519, 606, 553, 519, 529, 624, 649, 479, 485, 538, 581, 652, 604, 509, 527, 595, 508, 581, 633, 677, 620, 494, 618, 650, 505, 532, 589, 604, 550, 513, 633, 562, 432, 633, 657, 582, 552, 529, 614, 515, 477, 547, 570, 564, 482, 518, 568, 481, 483, 582, 550, 518, 522, 551, 522, 517, 533, 575, 626, 511, 483, 576, 552, 646, 619, 522, 566, 549, 592, 643, 566, 652, 720, 562, 526, 584, 627, 587, 529, 481, 657, 610, 543, 540, 570, 596, 492, 570, 661, 668, 559, 535, 624, 646, 576, 684, 697, 648, 630, 665, 690, 622, 695, 600, 622, 574, 594, 560, 556, 595, 635, 631, 624, 603, 551, 582, 600, 550, 557, 597, 590, 560, 522, 499, 525, 576, 547, 574, 614, 582, 566, 585, 589, 499, 560, 565, 629, 675, 593, 527, 632, 632, 583, 591, 565, 596, 623, 641, 573, 547, 578, 644, 596, 595, 613, 621, 562, 569, 641, 637, 616, 551, 593, 684, 643, 621, 634, 556, 609, 528, 482, 593, 626, 619, 547, 613, 592, 509, 498, 539, 545, 528, 539, 620, 579, 648, 686, 639, 514, 519, 605, 626, 637, 703, 667, 588, 566, 607, 697, 588, 622, 698, 637, 596, 544, 541, 578, 663, 875, 801, 620, 669, 803, 824, 610, 643, 944, 874, 568, 635, 858, 930, 690, 539, 752, 764, 624, 540, 593, 669, 617, 939, 1368, 1299, 865, 668, 1148, 1777, 1498, 1217, 3236, 3315, 1493, 710, 2879, 4880, 3870, 876, 3065, 3247, 1549, 628, 2817, 5019, 4044, 1265, 2390, 2768, 1579, 882, 2401, 4975, 4442, 2334, 3179, 4220, 2695, 1516, 3475, 7585, 7128, 2199, 3399, 4680, 3226, 1515, 3760, 7664, 7011, 1057, 2770, 3512, 2290, 948, 2570, 4801, 4072, 750, 1818, 1817, 976, 585, 1289, 2204, 1688, 855, 1188, 1099, 606, 553, 843, 1041, 864, 911, 822, 958, 719, 645, 783, 872, 1008, 1202, 1168, 1076, 890, 686, 927, 1085, 1113, 978, 1301, 1281, 1027, 553, 909, 1265, 1057, 680, 846, 920, 821, 541, 766, 1019, 722, 636, 735, 733, 653, 560, 669, 695, 601, 657, 686, 744, 704, 592, 652, 663, 670, 688, 614, 680, 675, 634, 652, 656, 662, 639, 519, 574, 522, 577, 618, 606, 657, 660, 703, 629, 590, 616, 586, 524, 563, 719, 698, 568, 550, 574, 556, 604, 578, 732, 645, 620, 601, 594, 661, 667, 637, 552, 661, 678, 542, 554, 681, 597, 450, 591, 656, 726, 573, 555, 725, 655, 521, 645, 656, 622, 542, 563, 749, 706, 584, 658, 705, 654, 586, 641, 737, 668, 622, 560, 619, 562, 549, 583, 532, 574, 579, 629, 615, 658, 621, 620, 635, 652, 633, 638, 658, 627, 583, 610, 629, 608, 576, 606, 606, 528, 583, 626, 589, 574, 575, 610, 664, 577, 548, 645, 644, 572, 543, 543, 713, 722, 565, 586, 648, 639, 559, 536, 597, 537, 469, 464, 602, 645, 524, 575, 675, 600, 525, 590, 610, 571, 504, 611, 739, 708, 636, 619, 672, 630, 558, 563, 637, 566, 597, 619, 666, 602, 507, 559, 549, 473, 514, 456, 503, 520, 483, 501, 533, 617, 594, 516, 624, 644, 553, 488, 456, 586, 663, 523, 527, 608, 605, 535, 515, 527, 529, 486, 511, 583, 579, 527, 622, 648, 648, 542, 527, 657, 582, 562, 636, 642, 633, 600, 634, 716, 662, 541, 521, 611, 567, 524, 591, 570, 588, 597, 594, 568, 668, 680, 535, 501, 576, 616, 650, 636, 625, 637, 600, 579, 601, 568, 618, 628, 553, 533, 639, 657, 590, 591, 587, 601, 627, 544, 537, 626, 613, 504, 571, 606, 651, 627, 568, 607, 528, 493, 600, 649, 667, 656, 604, 533, 516, 485, 636, 690, 662, 617, 598, 567, 514, 623, 601, 697, 639, 513, 531, 603, 697, 590, 470, 544, 630, 586, 475, 573, 712, 576, 589, 559, 532, 561, 574, 638, 638, 600, 589, 601, 638, 592, 649, 626, 603, 498, 548, 620, 635, 667, 656, 535, 565, 477, 609, 565, 562, 636, 648, 578, 508, 553, 598, 576, 568, 602, 580, 559, 545, 563, 538, 490, 469, 496, 576, 604, 565, 476, 455, 557, 540, 486, 502, 575, 531, 666, 513, 577, 637, 533, 488, 507, 633, 624, 539, 584, 634, 521, 494, 503, 658, 579, 597, 596, 585, 604, 633, 597, 650, 529, 550, 533, 502, 519, 576, 539, 502, 414, 520, 534, 432, 480, 529, 548, 517, 482, 467, 470, 458, 431, 431, 504, 581, 477, 486, 453, 419, 410, 406, 415, 444, 449, 412, 396, 346, 333, 419, 415, 403, 386, 338, 327, 347, 343, 341, 328, 372, 415, 410, 440, 446, 400, 453, 443, 405, 453, 417, 442, 458, 415, 438, 505, 498]"
