posz,velx,vely,velz,accx,accy,accz,p1x,p1y,p1z,p2x,p2y,p2z,p3x,p3y,p3z,p4x,p4y,p4z,p5x,p5y,p5z,heatmap
0.8739479184150696,0.43024420738220215,0.4556981921195984,-0.07591709494590759,0.38134047389030457,0.6999289989471436,-0.2133629322052002,-0.152837872505188,1.0494232177734375,16.75,0.009954333305358887,0.7717609405517578,18.0,0.13884341716766357,0.7571697235107422,15.25,0.21580493450164795,0.6092548370361328,16.0,0.7541064023971558,-0.5536079406738281,15.25,"[461, 650, 671, 625, 688, 627, 674, 651, 501, 693, 684, 526, 629, 635, 685, 624, 522, 580, 580, 518, 582, 659, 496, 510, 506, 514, 490, 448, 467, 531, 472, 491, 495, 517, 471, 500, 514, 545, 515, 461, 516, 552, 453, 412, 482, 537, 483, 442, 571, 521, 394, 427, 500, 507, 422, 492, 513, 546, 479, 467, 547, 491, 410, 412, 510, 504, 448, 502, 528, 477, 423, 429, 614, 564, 485, 594, 551, 503, 537, 509, 574, 539, 610, 637, 548, 527, 626, 589, 452, 540, 613, 507, 436, 538, 548, 475, 472, 490, 547, 442, 425, 511, 492, 464, 454, 570, 633, 523, 483, 637, 733, 582, 507, 616, 671, 597, 521, 611, 616, 558, 593, 549, 591, 600, 553, 500, 635, 693, 527, 608, 520, 457, 580, 542, 476, 532, 510, 530, 601, 587, 624, 631, 494, 565, 541, 511, 585, 580, 554, 581, 561, 607, 570, 652, 665, 534, 546, 648, 613, 582, 533, 590, 476, 484, 518, 578, 593, 509, 617, 600, 545, 606, 564, 471, 606, 637, 523, 523, 587, 577, 497, 446, 553, 573, 518, 527, 573, 536, 491, 445, 542, 592, 526, 570, 583, 582, 587, 506, 547, 584, 563, 591, 551, 508, 555, 565, 509, 493, 543, 521, 419, 468, 509, 460, 492, 527, 522, 503, 559, 524, 458, 488, 552, 615, 459, 545, 521, 495, 422, 419, 547, 545, 520, 468, 556, 616, 575, 514, 562, 569, 441, 485, 422, 440, 517, 524, 494, 436, 494, 531, 535, 485, 498, 518, 556, 524, 482, 537, 536, 578, 555, 531, 487, 484, 547, 530, 537, 579, 573, 521, 467, 539, 520, 611, 596, 536, 533, 580, 571, 503, 490, 607, 587, 484, 547, 556, 545, 458, 480, 473, 477, 502, 483, 431, 500, 508, 519, 458, 510, 578, 547, 405, 435, 564, 627, 500, 566, 582, 572, 563, 502, 632, 638, 653, 551, 651, 680, 683, 599, 558, 506, 656, 671, 598, 558, 610, 707, 595, 614, 658, 656, 615, 609, 608, 641, 680, 623, 538, 586, 655, 605, 585, 591, 632, 539, 523, 509, 526, 613, 624, 638, 637, 569, 579, 603, 508, 489, 483, 602, 601, 573, 509, 621, 677, 578, 517, 620, 606, 471, 492, 560, 636, 577, 467, 455, 491, 457, 590, 601, 592, 645, 643, 552, 515, 535, 494, 471, 562, 574, 638, 586, 540, 536, 575, 575, 550, 520, 649, 682, 530, 538, 592, 611, 536, 500, 525, 664, 563, 543, 587, 648, 612, 489, 572, 733, 662, 551, 598, 624, 636, 588, 556, 674, 607, 559, 611, 554, 636, 677, 615, 635, 521, 602, 562, 637, 626, 602, 592, 640, 609, 608, 613, 586, 537, 667, 668, 573, 488, 552, 571, 509, 494, 616, 691, 571, 483, 577, 532, 523, 604, 599, 564, 582, 593, 646, 682, 677, 636, 580, 522, 646, 665, 672, 932, 983, 944, 787, 979, 1542, 1310, 1144, 1488, 2160, 2495, 1185, 2231, 4434, 3771, 1340, 1555, 2641, 3094, 1364, 2503, 5059, 4332, 799, 954, 1466, 1660, 868, 1460, 2539, 2074, 675, 674, 806, 849, 666, 813, 1072, 883, 1070, 1033, 1266, 1137, 831, 1100, 1909, 1810, 1824, 2141, 2720, 2365, 1329, 2398, 4528, 4160, 1941, 2502, 3144, 2605, 1341, 2879, 5582, 5041, 1297, 1602, 2011, 1657, 955, 1949, 3833, 3452, 777, 934, 1061, 948, 747, 1010, 1839, 1666, 693, 708, 794, 744, 705, 770, 961, 944, 748, 736, 809, 685, 623, 685, 846, 867, 605, 751, 869, 734, 600, 632, 729, 770, 609, 678, 841, 705, 641, 691, 798, 793, 770, 849, 860, 697, 720, 924, 1058, 988, 632, 636, 642, 535, 596, 717, 808, 785, 524, 610, 709, 597, 583, 633, 727, 721, 563, 496, 543, 523, 492, 520, 595, 620, 773, 652, 646, 655, 611, 572, 784, 854, 1017, 1566, 1650, 1232, 792, 1074, 1600, 1546, 1459, 3319, 3815, 2081, 890, 1768, 3282, 2886, 1688, 4186, 4407, 2116, 968, 2450, 4091, 3219, 1268, 2476, 2538, 1270, 882, 1571, 2464, 2038, 816, 1099, 1159, 705, 769, 854, 1045, 1042, 622, 821, 925, 674, 614, 733, 857, 808, 551, 783, 857, 648, 499, 596, 731, 696, 629, 686, 777, 751, 570, 640, 674, 657, 665, 710, 847, 824, 617, 621, 732, 732, 557, 635, 717, 782, 689, 571, 704, 664, 484, 588, 713, 756, 789, 608, 792, 768, 565, 703, 803, 705, 725, 679, 729, 721, 645, 625, 622, 660, 698, 699, 619, 667, 687, 679, 641, 554, 615, 693, 659, 660, 550, 616, 591, 490, 526, 686, 679, 543, 491, 551, 549, 534, 572, 574, 538, 460, 638, 609, 551, 616, 606, 616, 569, 577, 594, 609, 651, 567, 516, 666, 644, 565, 564, 649, 657, 643, 552, 678, 682, 526, 617, 681, 660, 648, 655, 698, 622, 583, 601, 671, 631, 593, 652, 599, 683, 699, 571, 669, 740, 582, 589, 541, 649, 748, 637, 667, 572, 506, 532, 538, 542, 617, 579, 491, 576, 507, 499, 632, 637, 633, 690, 621, 726, 646, 628, 696, 746, 782, 526, 552, 677, 717, 594, 564, 709, 668, 517, 524, 648, 602, 487, 587, 636, 584, 606, 785, 711, 575, 615, 706, 625, 465, 755, 654, 666, 881, 787, 677, 923, 930, 1081, 730, 1053, 1489, 1104, 867, 2058, 2107, 1190, 1009, 1337, 1876, 1343, 1405, 3016, 2848, 1055, 1058, 1318, 1568, 1124, 1460, 2682, 2459, 896, 954, 1110, 1249, 952, 1224, 2077, 1865, 780, 781, 889, 1101, 890, 1073, 1904, 1665, 581, 649, 665, 829, 708, 839, 1300, 1163, 616, 604, 655, 714, 702, 662, 655, 698, 744, 615, 650, 768, 696, 673, 657, 750, 651, 892, 960, 768, 600, 700, 1006, 934, 539, 1134, 1249, 868, 586, 915, 1369, 1170, 674, 1111, 1069, 736, 600, 884, 1146, 945, 591, 726, 827, 774, 662, 679, 757, 703, 546, 515, 695, 762, 568, 660, 788, 746, 522, 560, 595, 596, 463, 631, 863, 798, 533, 530, 559, 558, 498, 577, 718, 672, 535, 621, 570, 569, 560, 582, 593, 546, 395, 529, 567, 502, 437, 507, 526, 442, 417, 519, 508, 434, 448, 548, 597, 458, 526, 497, 442, 458, 503, 547, 538, 489, 501, 423, 454, 539, 480, 450, 480, 525, 418, 402, 477, 451, 433, 447, 399, 412]"
0.765553891658783,0.3157758414745331,0.2575002908706665,-0.24382838606834412,0.03102937899529934,-0.2403569370508194,0.11779675632715225,-0.22516202926635742,0.8764743804931641,20.0,-0.20241689682006836,0.8063793182373047,18.0,0.16064691543579102,-1.0874748229980469,17.25,0.17566728591918945,0.23546218872070312,15.25,0.3632073402404785,-0.8909225463867188,18.25,"[611, 621, 641, 679, 651, 680, 645, 623, 678, 638, 564, 599, 614, 687, 658, 649, 543, 525, 467, 446, 490, 606, 550, 532, 519, 482, 459, 540, 557, 504, 452, 447, 504, 491, 512, 614, 554, 394, 408, 440, 542, 572, 566, 534, 470, 491, 494, 537, 601, 593, 515, 470, 536, 532, 470, 530, 541, 571, 462, 447, 487, 529, 468, 469, 529, 506, 454, 461, 573, 581, 454, 416, 465, 476, 464, 473, 552, 533, 435, 407, 606, 579, 476, 516, 533, 542, 459, 506, 617, 522, 546, 543, 506, 511, 617, 632, 489, 489, 525, 542, 571, 521, 470, 473, 527, 485, 597, 613, 541, 508, 558, 567, 481, 463, 440, 487, 536, 525, 459, 468, 425, 544, 527, 482, 535, 587, 569, 521, 529, 525, 611, 602, 583, 561, 605, 643, 530, 502, 565, 567, 560, 554, 516, 566, 593, 557, 514, 470, 510, 575, 553, 537, 577, 650, 642, 496, 539, 637, 620, 589, 462, 561, 653, 549, 453, 534, 542, 486, 527, 519, 606, 615, 510, 435, 515, 549, 511, 540, 630, 650, 560, 483, 601, 629, 567, 547, 567, 565, 551, 498, 591, 636, 621, 563, 484, 544, 571, 497, 489, 554, 546, 534, 539, 532, 516, 501, 542, 618, 540, 503, 542, 520, 483, 503, 543, 592, 499, 468, 599, 600, 505, 498, 457, 511, 513, 570, 575, 495, 433, 463, 462, 466, 486, 674, 611, 474, 502, 557, 564, 465, 437, 482, 497, 400, 462, 555, 595, 535, 541, 566, 461, 460, 559, 577, 577, 523, 466, 564, 541, 507, 590, 543, 541, 516, 500, 461, 455, 546, 574, 467, 515, 551, 502, 522, 502, 543, 535, 423, 520, 547, 535, 536, 422, 450, 552, 490, 474, 500, 623, 629, 548, 548, 583, 630, 566, 518, 605, 585, 586, 569, 611, 678, 548, 534, 554, 481, 525, 560, 513, 554, 516, 565, 503, 484, 501, 495, 606, 586, 469, 498, 544, 534, 560, 572, 717, 687, 547, 568, 649, 710, 528, 522, 689, 674, 563, 476, 657, 610, 533, 600, 707, 683, 545, 576, 714, 593, 618, 701, 613, 595, 561, 638, 566, 607, 665, 654, 615, 611, 621, 597, 543, 659, 675, 571, 576, 617, 676, 631, 447, 487, 605, 645, 544, 524, 598, 607, 497, 499, 552, 605, 590, 520, 498, 530, 528, 511, 588, 584, 576, 532, 596, 601, 595, 496, 660, 702, 569, 566, 655, 675, 633, 521, 540, 578, 614, 544, 505, 597, 598, 583, 494, 638, 698, 533, 525, 550, 591, 578, 566, 646, 596, 541, 560, 546, 556, 618, 612, 622, 549, 508, 528, 530, 645, 619, 508, 534, 573, 541, 527, 597, 583, 531, 584, 672, 587, 621, 650, 636, 590, 526, 674, 673, 571, 558, 578, 640, 528, 475, 599, 583, 549, 510, 527, 596, 577, 585, 549, 470, 509, 467, 482, 599, 537, 570, 510, 534, 581, 468, 511, 554, 542, 537, 544, 566, 633, 570, 499, 550, 564, 624, 732, 646, 615, 648, 738, 719, 1329, 1241, 1682, 1490, 1112, 1276, 2924, 2939, 2736, 1663, 2773, 2654, 2068, 1937, 5393, 5814, 2251, 1210, 2151, 1977, 1665, 1425, 4168, 4618, 889, 974, 1228, 966, 767, 1099, 2042, 1942, 910, 1233, 1447, 946, 708, 1062, 1780, 1683, 1383, 1861, 2728, 2032, 952, 1555, 3045, 3030, 1639, 2275, 3779, 2839, 1226, 1931, 4151, 4230, 886, 1656, 2447, 1808, 830, 1430, 2751, 2596, 688, 887, 955, 758, 533, 836, 1032, 875, 608, 651, 722, 636, 593, 629, 817, 836, 537, 647, 716, 624, 512, 693, 894, 770, 573, 622, 602, 533, 560, 573, 581, 615, 600, 582, 524, 519, 525, 558, 523, 519, 684, 612, 524, 589, 644, 629, 566, 620, 674, 579, 529, 619, 615, 515, 518, 568, 633, 585, 640, 675, 608, 571, 592, 647, 626, 721, 684, 597, 585, 607, 628, 615, 690, 694, 741, 702, 540, 569, 664, 670, 882, 1889, 2100, 1406, 937, 1206, 1777, 1566, 1281, 3485, 4165, 2601, 1144, 1843, 3312, 3076, 762, 2225, 2857, 1812, 775, 1151, 2202, 2091, 743, 1085, 1108, 752, 700, 789, 965, 861, 1264, 1427, 1103, 807, 860, 1284, 1244, 713, 2385, 4076, 3162, 1097, 1444, 2406, 2907, 1404, 2514, 4768, 4072, 1571, 1402, 2486, 3327, 1798, 1208, 2114, 1861, 916, 825, 1366, 1683, 1075, 776, 688, 758, 713, 714, 723, 921, 905, 723, 606, 731, 872, 777, 653, 1051, 1065, 677, 606, 659, 784, 695, 621, 855, 911, 661, 630, 543, 527, 611, 568, 660, 701, 452, 502, 489, 509, 486, 506, 549, 477, 534, 517, 522, 529, 645, 587, 520, 582, 608, 462, 608, 663, 649, 633, 611, 667, 636, 590, 744, 712, 624, 628, 565, 690, 567, 673, 750, 663, 616, 642, 638, 589, 542, 522, 540, 580, 539, 580, 598, 561, 722, 778, 663, 624, 601, 734, 747, 517, 686, 807, 712, 664, 646, 720, 701, 607, 610, 707, 604, 560, 548, 613, 653, 548, 651, 659, 598, 607, 645, 642, 590, 618, 660, 605, 560, 594, 545, 473, 491, 605, 633, 621, 585, 597, 578, 545, 563, 631, 606, 605, 698, 783, 643, 614, 892, 901, 1019, 708, 1188, 1526, 1177, 733, 1977, 2114, 1631, 880, 1570, 2172, 1798, 815, 2942, 3324, 1725, 928, 1434, 1997, 1622, 950, 2845, 3182, 1470, 813, 1206, 1649, 1364, 838, 2354, 2701, 1371, 1044, 1540, 1714, 1301, 971, 2578, 2762, 1395, 1281, 1827, 1692, 1104, 1332, 2971, 3007, 934, 1139, 1569, 1326, 899, 1174, 2345, 2264, 583, 916, 1074, 987, 679, 824, 1362, 1169, 560, 723, 784, 762, 592, 703, 969, 778, 643, 649, 618, 595, 565, 603, 723, 646, 631, 658, 591, 581, 593, 612, 654, 696, 609, 598, 544, 467, 483, 574, 598, 596, 720, 688, 605, 607, 657, 565, 650, 675, 644, 612, 711, 694, 577, 515, 682, 754, 591, 549, 597, 589, 579, 517, 638, 689, 554, 521, 525, 565, 580, 504, 481, 573, 463, 500, 495, 487, 523, 548, 542, 470, 406, 425, 435, 416, 384, 467, 564, 467, 466, 397, 522, 591, 427, 419, 478, 502, 384, 363, 441, 479, 442, 424, 450, 456, 403, 435, 426, 405, 377, 431, 545, 519, 406, 491, 473, 403, 339, 393, 507, 507, 410, 459, 394, 297, 389, 414, 437, 423]"
0.8686025142669678,0.355518102645874,-0.12194380164146423,0.0751810222864151,0.10687846690416336,-0.4580199420452118,0.37053239345550537,-0.5580505132675171,1.4256477355957031,20.5,-0.3582080602645874,1.2707233428955078,18.0,0.15734827518463135,0.6188392639160156,17.0,0.20455515384674072,0.0,17.0,0.5546013116836548,-0.6089687347412109,17.75,"[592, 600, 548, 602, 671, 599, 549, 602, 617, 636, 577, 587, 587, 556, 622, 565, 569, 616, 618, 592, 582, 571, 517, 516, 529, 527, 564, 516, 500, 528, 509, 553, 508, 546, 497, 444, 414, 499, 433, 414, 481, 516, 493, 485, 413, 472, 543, 517, 532, 572, 455, 530, 526, 513, 615, 615, 515, 498, 508, 567, 539, 459, 535, 540, 492, 477, 542, 631, 562, 456, 521, 509, 496, 432, 536, 581, 470, 412, 557, 611, 498, 513, 614, 573, 483, 596, 597, 562, 597, 540, 542, 543, 584, 628, 542, 550, 513, 476, 491, 489, 571, 610, 479, 510, 491, 527, 540, 508, 483, 556, 523, 520, 523, 540, 584, 574, 550, 615, 625, 635, 509, 484, 501, 429, 450, 558, 486, 520, 530, 472, 527, 472, 497, 560, 447, 511, 513, 561, 613, 492, 542, 630, 586, 561, 473, 578, 565, 497, 519, 526, 554, 540, 531, 529, 542, 512, 575, 560, 628, 594, 484, 539, 603, 591, 634, 680, 605, 511, 583, 611, 604, 605, 696, 687, 612, 588, 560, 547, 463, 596, 588, 524, 570, 534, 542, 530, 511, 583, 525, 531, 580, 567, 587, 578, 559, 581, 493, 492, 520, 562, 606, 572, 646, 638, 574, 535, 523, 544, 593, 494, 605, 677, 648, 603, 583, 659, 552, 545, 611, 614, 665, 614, 537, 549, 450, 578, 603, 516, 519, 563, 632, 501, 506, 549, 509, 494, 525, 599, 610, 510, 526, 520, 521, 554, 578, 556, 508, 488, 457, 485, 550, 592, 542, 536, 524, 529, 537, 533, 505, 563, 539, 508, 579, 571, 577, 514, 581, 617, 454, 452, 610, 626, 553, 495, 541, 633, 513, 535, 588, 539, 516, 479, 539, 569, 524, 539, 538, 517, 527, 492, 474, 562, 578, 534, 520, 526, 560, 561, 484, 573, 549, 475, 519, 544, 555, 558, 554, 555, 635, 629, 574, 591, 579, 668, 620, 544, 595, 621, 576, 536, 559, 534, 530, 552, 552, 558, 509, 531, 602, 435, 507, 595, 540, 485, 521, 593, 566, 463, 598, 610, 456, 508, 565, 614, 472, 505, 615, 614, 551, 598, 568, 536, 584, 444, 541, 592, 633, 567, 514, 619, 593, 633, 681, 625, 618, 592, 530, 648, 624, 657, 686, 704, 701, 491, 586, 691, 604, 669, 728, 707, 620, 570, 646, 611, 502, 675, 698, 614, 517, 553, 586, 483, 629, 693, 710, 621, 570, 589, 605, 559, 595, 559, 558, 622, 588, 648, 679, 643, 547, 536, 582, 592, 598, 635, 730, 640, 508, 552, 626, 565, 511, 673, 713, 577, 571, 639, 633, 551, 575, 722, 696, 636, 597, 614, 617, 635, 656, 632, 623, 620, 573, 589, 623, 655, 663, 593, 675, 650, 595, 509, 591, 706, 641, 634, 701, 666, 577, 553, 557, 617, 551, 617, 671, 595, 618, 501, 505, 588, 592, 555, 553, 577, 593, 524, 464, 591, 640, 545, 538, 582, 522, 430, 484, 669, 595, 477, 617, 620, 546, 525, 595, 622, 550, 566, 607, 567, 600, 641, 691, 666, 575, 663, 705, 647, 757, 935, 1241, 1041, 678, 781, 1460, 1423, 2256, 1508, 2946, 2747, 1918, 1416, 4331, 4797, 3189, 1809, 4361, 4591, 2876, 1762, 5750, 6483, 2043, 1995, 4320, 4130, 2060, 1465, 3821, 4282, 1791, 2071, 3604, 2618, 1056, 1542, 3957, 4304, 1804, 1527, 2735, 1887, 885, 1294, 3552, 3953, 1469, 1208, 2157, 1573, 864, 1053, 2662, 3072, 1286, 1102, 1870, 1379, 913, 860, 2153, 2527, 1043, 991, 1539, 1184, 841, 794, 1810, 2054, 1059, 991, 1596, 1220, 793, 875, 1884, 2103, 909, 954, 1386, 1018, 731, 872, 1636, 1761, 681, 765, 864, 681, 598, 774, 1012, 978, 550, 564, 610, 637, 627, 651, 653, 601, 607, 612, 669, 645, 565, 565, 538, 572, 627, 530, 634, 621, 570, 576, 522, 632, 707, 650, 767, 673, 636, 659, 626, 679, 689, 706, 930, 830, 679, 613, 781, 906, 1095, 1560, 1338, 822, 772, 1269, 1443, 915, 1540, 2176, 1536, 913, 911, 1733, 1879, 861, 1422, 2148, 1629, 820, 827, 1465, 1695, 956, 877, 1356, 1260, 885, 837, 986, 1124, 833, 748, 804, 721, 664, 754, 812, 792, 675, 639, 788, 821, 726, 597, 682, 859, 851, 591, 667, 724, 635, 519, 568, 690, 647, 610, 624, 544, 514, 611, 677, 677, 621, 507, 686, 740, 638, 622, 543, 737, 700, 549, 587, 736, 697, 615, 565, 585, 576, 470, 537, 746, 770, 650, 586, 782, 749, 787, 561, 789, 863, 844, 647, 843, 1019, 791, 493, 724, 846, 735, 587, 665, 861, 646, 510, 715, 846, 694, 547, 689, 820, 756, 580, 630, 713, 618, 550, 608, 780, 756, 677, 605, 584, 596, 610, 648, 660, 658, 662, 624, 619, 596, 649, 668, 575, 738, 656, 591, 642, 626, 680, 697, 708, 725, 665, 577, 597, 630, 667, 745, 716, 677, 611, 621, 568, 611, 605, 665, 706, 630, 553, 558, 675, 610, 542, 572, 632, 553, 583, 620, 672, 553, 556, 611, 575, 529, 598, 657, 612, 514, 611, 620, 538, 508, 576, 658, 630, 512, 579, 690, 579, 493, 666, 705, 562, 527, 506, 585, 564, 564, 630, 657, 627, 562, 509, 654, 681, 533, 514, 557, 537, 565, 581, 643, 600, 597, 672, 693, 629, 590, 656, 686, 647, 671, 783, 849, 743, 623, 708, 826, 771, 714, 867, 1097, 936, 696, 793, 1144, 1082, 503, 635, 678, 708, 618, 597, 898, 810, 723, 550, 672, 783, 702, 570, 976, 1077, 685, 621, 793, 827, 721, 708, 993, 1088, 637, 596, 669, 670, 648, 580, 679, 762, 662, 633, 644, 667, 747, 623, 815, 924, 642, 488, 607, 730, 690, 602, 759, 843, 641, 606, 631, 611, 558, 556, 613, 751, 681, 678, 705, 619, 603, 604, 719, 769, 688, 565, 695, 720, 666, 632, 752, 820, 663, 648, 726, 707, 566, 664, 723, 710, 496, 635, 656, 543, 448, 567, 700, 629, 515, 652, 679, 539, 487, 629, 718, 604, 510, 616, 638, 549, 519, 645, 621, 530, 547, 624, 547, 478, 468, 602, 575, 504, 461, 521, 518, 457, 402, 486, 616, 518, 454, 468, 436, 478, 421, 487, 521, 486, 433, 458, 486, 419, 373, 442, 496, 504, 494, 482, 439, 416, 418, 500, 410, 450]"
0.8808606266975403,0.20462779700756073,-0.24318449199199677,0.11895034462213516,-0.12329192459583282,-0.5404268503189087,0.3123307228088379,-0.051493048667907715,0.9418487548828125,24.25,0.012164711952209473,0.8504390716552734,23.75,0.043492913246154785,0.8347034454345703,22.5,0.11001169681549072,0.6869316101074219,25.0,0.13633310794830322,0.6331443786621094,20.0,"[478, 634, 719, 637, 489, 638, 718, 629, 442, 569, 647, 596, 532, 622, 668, 570, 504, 520, 560, 516, 544, 559, 471, 478, 491, 518, 507, 490, 546, 485, 473, 474, 489, 472, 522, 489, 432, 436, 444, 463, 474, 538, 544, 493, 415, 423, 463, 476, 443, 529, 561, 588, 509, 516, 543, 456, 532, 538, 579, 602, 554, 536, 575, 484, 523, 486, 502, 507, 466, 383, 427, 533, 476, 567, 622, 501, 475, 454, 494, 514, 456, 519, 662, 646, 478, 466, 562, 558, 525, 627, 642, 633, 586, 601, 634, 570, 537, 557, 625, 530, 509, 558, 508, 544, 557, 477, 543, 603, 531, 477, 495, 618, 573, 576, 519, 518, 531, 549, 508, 511, 591, 603, 560, 530, 575, 553, 591, 605, 661, 574, 570, 548, 542, 533, 544, 653, 574, 617, 607, 565, 468, 502, 533, 530, 461, 538, 598, 526, 456, 484, 507, 504, 553, 578, 624, 489, 497, 598, 514, 518, 490, 432, 504, 500, 544, 542, 530, 560, 468, 478, 518, 486, 478, 469, 607, 609, 576, 630, 532, 574, 614, 573, 625, 595, 588, 741, 707, 616, 621, 631, 659, 542, 603, 666, 622, 591, 625, 611, 577, 497, 614, 642, 605, 593, 640, 596, 563, 545, 610, 583, 429, 514, 567, 465, 464, 506, 610, 629, 479, 517, 568, 447, 560, 607, 547, 538, 527, 551, 550, 529, 529, 619, 585, 500, 524, 541, 534, 515, 510, 560, 574, 511, 568, 536, 547, 585, 507, 572, 580, 518, 495, 571, 550, 453, 526, 585, 608, 528, 516, 502, 531, 538, 479, 561, 644, 570, 508, 567, 579, 602, 620, 598, 700, 566, 548, 594, 630, 593, 601, 680, 599, 562, 640, 667, 621, 629, 543, 596, 595, 599, 681, 621, 542, 593, 519, 543, 604, 611, 570, 601, 621, 656, 595, 589, 614, 559, 518, 522, 540, 585, 611, 640, 580, 608, 579, 559, 517, 608, 714, 666, 519, 598, 596, 475, 472, 574, 684, 598, 540, 640, 618, 528, 543, 600, 702, 631, 456, 574, 704, 614, 630, 587, 599, 547, 590, 596, 593, 562, 610, 745, 695, 596, 528, 584, 558, 522, 559, 648, 680, 617, 566, 612, 532, 480, 594, 654, 609, 569, 636, 637, 645, 636, 652, 579, 605, 627, 584, 541, 538, 636, 643, 554, 645, 654, 653, 581, 508, 608, 632, 499, 593, 619, 582, 685, 678, 668, 658, 598, 652, 585, 610, 609, 651, 580, 569, 542, 607, 663, 691, 625, 647, 711, 659, 581, 545, 694, 638, 604, 588, 675, 737, 595, 567, 667, 600, 660, 684, 676, 677, 609, 704, 662, 658, 658, 679, 591, 703, 587, 573, 674, 595, 581, 659, 540, 519, 529, 605, 641, 596, 513, 560, 518, 611, 554, 527, 567, 716, 583, 532, 634, 703, 599, 517, 650, 575, 582, 500, 595, 661, 594, 521, 549, 582, 665, 605, 620, 605, 606, 625, 621, 590, 578, 617, 578, 484, 638, 707, 652, 619, 623, 579, 621, 723, 677, 540, 570, 499, 541, 585, 617, 592, 562, 549, 495, 523, 623, 641, 560, 635, 617, 522, 482, 1192, 1082, 1605, 1150, 822, 1100, 2346, 2463, 3711, 2827, 5285, 3772, 2360, 2582, 7439, 8258, 4893, 3547, 7203, 5528, 3341, 2936, 9542, 10807, 4520, 2614, 6223, 5143, 3128, 1953, 7653, 9172, 4972, 2409, 6394, 5186, 3003, 1594, 7513, 9467, 4087, 2250, 5571, 4329, 2311, 1540, 6546, 8094, 1844, 1189, 2342, 1883, 1079, 1054, 2998, 3525, 823, 1066, 1368, 967, 663, 900, 1107, 1195, 635, 805, 895, 661, 596, 763, 730, 678, 620, 771, 794, 759, 701, 674, 737, 749, 648, 638, 623, 610, 627, 598, 539, 545, 685, 615, 630, 689, 643, 645, 733, 702, 729, 704, 664, 708, 637, 754, 703, 681, 806, 678, 726, 744, 725, 780, 861, 890, 1364, 1820, 1689, 1221, 1174, 1327, 1579, 1272, 2137, 3151, 2727, 1594, 1787, 2319, 2423, 1517, 2070, 3080, 2476, 1130, 1486, 2176, 2226, 1136, 1499, 2329, 1959, 916, 1049, 1530, 1618, 927, 1224, 1594, 1511, 862, 816, 1084, 1191, 959, 752, 915, 950, 825, 682, 766, 847, 805, 706, 1035, 1092, 845, 547, 681, 934, 748, 819, 1179, 1158, 839, 667, 828, 1002, 761, 787, 1122, 1157, 783, 602, 794, 988, 864, 647, 818, 838, 797, 636, 733, 826, 679, 968, 927, 880, 907, 864, 999, 827, 706, 903, 915, 863, 894, 949, 1079, 1108, 914, 794, 1065, 1055, 823, 754, 899, 1084, 922, 649, 877, 1032, 827, 672, 799, 961, 851, 619, 719, 749, 625, 708, 774, 650, 600, 590, 607, 657, 560, 650, 651, 593, 666, 670, 708, 621, 561, 673, 603, 585, 610, 674, 591, 642, 592, 623, 622, 487, 659, 531, 564, 642, 550, 488, 566, 554, 565, 642, 622, 668, 626, 556, 589, 593, 656, 708, 671, 689, 702, 643, 527, 631, 725, 631, 648, 728, 737, 567, 597, 674, 662, 584, 576, 555, 609, 541, 514, 505, 505, 611, 536, 576, 645, 581, 605, 602, 541, 596, 566, 575, 608, 580, 609, 612, 589, 502, 549, 648, 681, 581, 593, 620, 599, 556, 696, 742, 637, 610, 614, 684, 619, 742, 584, 716, 721, 692, 706, 1009, 1036, 820, 495, 736, 752, 705, 575, 956, 1131, 708, 546, 669, 666, 687, 572, 760, 936, 631, 587, 617, 728, 667, 564, 954, 1013, 634, 773, 953, 810, 621, 742, 1149, 1069, 540, 724, 916, 782, 531, 709, 938, 766, 515, 658, 746, 670, 511, 638, 767, 706, 581, 658, 715, 668, 628, 647, 754, 752, 703, 699, 704, 761, 649, 626, 763, 795, 849, 737, 665, 802, 758, 707, 774, 831, 750, 675, 664, 845, 729, 655, 759, 713, 573, 640, 767, 752, 645, 720, 736, 646, 564, 675, 838, 751, 565, 600, 754, 699, 508, 555, 642, 617, 576, 615, 687, 695, 508, 598, 638, 576, 549, 627, 587, 516, 433, 456, 464, 474, 455, 509, 520, 465, 482, 457, 482, 559, 544, 582, 649, 615, 434, 466, 498, 524, 451, 470, 455, 465, 471, 528, 660, 599, 442, 454, 529, 455, 341, 435, 542, 489, 365, 373, 449, 414, 444, 511, 519, 473, 511, 496, 452, 464, 446, 421, 458, 429, 471, 465, 469, 502, 437, 335, 429, 397, 389, 466, 454, 469]"
0.9337222576141357,-0.08389877527952194,-0.469075083732605,0.17365029454231262,-0.5428245067596436,-0.7868450880050659,0.22126594185829163,-0.5457719564437866,1.4815807342529297,22.25,-0.4175981283187866,1.3997554779052734,18.25,-0.031216979026794434,1.064300537109375,16.0,-0.02678239345550537,1.2375354766845703,15.5,0.14545118808746338,0.7465839385986328,20.0,"[537, 577, 592, 630, 642, 631, 591, 575, 446, 569, 643, 588, 599, 666, 695, 588, 537, 620, 592, 503, 614, 681, 580, 557, 503, 473, 535, 532, 435, 435, 510, 565, 579, 478, 517, 563, 528, 563, 539, 568, 531, 478, 524, 517, 540, 502, 523, 552, 536, 512, 591, 563, 464, 501, 543, 597, 567, 498, 585, 604, 512, 486, 504, 580, 573, 526, 575, 605, 532, 507, 538, 600, 466, 551, 546, 538, 530, 503, 575, 493, 466, 504, 596, 590, 480, 516, 577, 531, 557, 568, 614, 586, 519, 503, 595, 588, 513, 553, 530, 533, 489, 506, 530, 497, 511, 481, 525, 523, 505, 491, 507, 505, 479, 471, 563, 553, 539, 515, 536, 534, 553, 534, 523, 493, 544, 617, 550, 550, 553, 611, 574, 537, 533, 591, 592, 551, 601, 586, 490, 614, 632, 608, 642, 563, 567, 561, 511, 535, 535, 526, 558, 558, 555, 514, 565, 532, 535, 579, 466, 486, 595, 579, 510, 537, 563, 568, 492, 511, 503, 510, 492, 507, 481, 468, 468, 503, 511, 532, 516, 530, 537, 510, 457, 527, 537, 524, 455, 614, 554, 419, 531, 550, 523, 525, 488, 602, 561, 525, 540, 459, 540, 543, 501, 547, 538, 519, 482, 487, 533, 541, 557, 500, 524, 569, 577, 535, 554, 556, 535, 536, 589, 614, 529, 515, 559, 649, 579, 566, 543, 531, 515, 556, 560, 593, 573, 595, 563, 528, 549, 508, 615, 586, 635, 562, 562, 565, 495, 585, 513, 596, 624, 568, 544, 521, 601, 610, 535, 660, 625, 481, 452, 547, 608, 546, 485, 655, 665, 509, 540, 598, 647, 608, 578, 551, 515, 555, 504, 565, 531, 568, 502, 483, 609, 587, 506, 601, 661, 607, 465, 504, 547, 541, 533, 544, 531, 551, 513, 634, 677, 571, 485, 485, 556, 583, 544, 614, 633, 541, 543, 562, 534, 504, 494, 527, 620, 560, 553, 592, 591, 525, 566, 541, 562, 537, 551, 560, 505, 536, 577, 572, 604, 569, 504, 549, 557, 569, 600, 627, 534, 556, 601, 613, 570, 443, 626, 600, 559, 598, 571, 573, 608, 603, 586, 559, 566, 600, 621, 614, 539, 546, 609, 626, 557, 574, 589, 575, 534, 519, 549, 624, 605, 644, 618, 601, 543, 506, 508, 572, 671, 601, 546, 604, 618, 625, 532, 526, 573, 534, 504, 493, 572, 606, 483, 519, 510, 449, 560, 559, 492, 480, 499, 533, 544, 538, 584, 627, 536, 495, 704, 632, 524, 599, 638, 554, 461, 533, 636, 539, 551, 598, 660, 632, 483, 526, 587, 559, 514, 532, 645, 675, 493, 502, 661, 714, 681, 534, 549, 703, 570, 487, 622, 729, 772, 636, 557, 679, 567, 576, 456, 660, 687, 463, 517, 587, 553, 517, 502, 586, 530, 484, 527, 602, 639, 567, 667, 618, 545, 603, 635, 683, 674, 668, 577, 567, 526, 485, 475, 505, 519, 549, 492, 625, 607, 555, 482, 567, 694, 562, 634, 742, 627, 614, 611, 695, 709, 579, 902, 936, 1071, 737, 720, 1031, 1457, 1433, 2284, 1892, 2704, 1813, 1664, 1805, 4067, 4434, 3494, 2590, 4205, 2899, 2468, 2383, 6336, 7069, 2661, 2071, 3386, 2227, 1835, 1916, 5060, 5569, 1911, 1673, 2574, 2011, 1314, 1368, 3190, 3565, 1663, 2350, 3658, 2569, 1152, 1707, 3986, 4071, 972, 2318, 3200, 2080, 751, 1734, 3417, 3216, 734, 1503, 1564, 1018, 666, 1149, 1489, 1159, 990, 1521, 1588, 1048, 743, 1023, 1340, 1199, 806, 1290, 1406, 946, 661, 910, 1292, 1223, 715, 814, 751, 618, 592, 649, 863, 843, 665, 617, 592, 564, 556, 574, 621, 656, 961, 1379, 1262, 790, 785, 804, 943, 852, 1346, 2455, 2412, 1086, 1089, 1397, 1667, 1223, 1167, 2412, 2460, 1114, 1026, 1368, 1540, 1203, 1061, 1584, 1569, 860, 845, 1046, 1076, 1011, 1727, 3364, 2881, 1071, 995, 1741, 2291, 1222, 1709, 3492, 3121, 1294, 932, 1628, 2258, 1258, 1199, 2049, 1756, 882, 659, 1145, 1369, 756, 831, 1149, 1016, 717, 563, 977, 1016, 657, 872, 1308, 1267, 942, 850, 917, 908, 864, 1393, 1911, 2066, 1848, 1379, 1420, 1712, 1277, 1468, 1996, 2254, 2035, 1351, 1683, 1789, 1349, 1184, 1614, 1920, 1575, 1246, 1420, 1144, 1127, 1132, 1460, 1420, 1165, 1199, 1264, 1094, 950, 1091, 1101, 852, 803, 1068, 1208, 898, 766, 776, 821, 731, 657, 775, 802, 716, 666, 722, 695, 665, 684, 749, 684, 623, 615, 632, 580, 667, 686, 624, 540, 521, 589, 656, 799, 779, 666, 615, 570, 610, 572, 705, 908, 818, 706, 636, 677, 721, 525, 777, 771, 671, 788, 785, 745, 799, 673, 860, 696, 631, 789, 729, 818, 809, 752, 701, 723, 738, 720, 558, 728, 724, 600, 525, 535, 611, 531, 419, 477, 526, 573, 578, 520, 577, 619, 534, 526, 571, 600, 602, 635, 596, 632, 552, 502, 521, 518, 705, 737, 533, 565, 670, 604, 465, 527, 679, 684, 528, 521, 593, 547, 543, 646, 630, 551, 504, 597, 606, 522, 565, 676, 560, 478, 598, 687, 671, 625, 649, 655, 517, 584, 666, 534, 633, 720, 675, 593, 606, 662, 630, 575, 627, 611, 676, 724, 644, 666, 649, 599, 682, 535, 794, 874, 777, 610, 716, 583, 673, 646, 883, 1001, 639, 591, 667, 687, 687, 655, 615, 698, 634, 558, 756, 802, 673, 600, 713, 807, 882, 712, 1154, 1035, 675, 684, 1090, 1322, 874, 752, 1071, 874, 595, 690, 1248, 1425, 729, 707, 607, 653, 657, 684, 849, 888, 641, 629, 592, 611, 620, 675, 640, 648, 651, 643, 714, 732, 674, 667, 685, 661, 607, 602, 695, 690, 609, 560, 634, 653, 572, 689, 682, 648, 582, 674, 786, 670, 598, 777, 789, 648, 534, 713, 802, 641, 590, 683, 730, 608, 495, 571, 661, 591, 523, 592, 650, 551, 485, 590, 691, 637, 479, 580, 589, 522, 546, 597, 632, 591, 422, 430, 458, 455, 505, 445, 472, 483, 433, 445, 453, 469, 492, 446, 474, 488, 473, 599, 634, 556, 541, 529, 549, 529, 392, 465, 532, 519, 490, 494, 469, 432, 462, 505, 454, 448, 449, 434, 461, 455, 494, 474, 474, 400, 413, 465, 524, 570, 453, 515, 473, 412, 449, 501, 541, 538, 496, 485, 449, 447, 417, 457, 504, 489]"
0.9588250517845154,-0.17089274525642395,-0.7281894087791443,0.1726875752210617,-0.5404636263847351,-0.890860915184021,0.15657609701156616,-0.1592332124710083,0.9854793548583984,15.0,-0.09886562824249268,0.9923458099365234,21.25,0.29180705547332764,0.42901039123535156,21.25,0.3995245695114136,0.21715164184570312,19.5,0.6212538480758667,-0.7252693176269531,18.75,"[639, 588, 522, 628, 687, 630, 526, 588, 563, 584, 599, 530, 559, 631, 574, 598, 518, 533, 497, 461, 569, 572, 476, 446, 457, 395, 466, 448, 400, 459, 523, 482, 496, 526, 455, 525, 479, 505, 534, 457, 529, 525, 470, 569, 553, 487, 498, 467, 428, 462, 488, 509, 491, 479, 452, 469, 486, 496, 536, 562, 569, 519, 591, 503, 466, 537, 568, 538, 579, 486, 546, 508, 620, 612, 581, 497, 519, 607, 536, 486, 583, 592, 586, 545, 514, 567, 518, 492, 520, 570, 571, 553, 555, 562, 572, 569, 546, 574, 549, 520, 503, 514, 519, 522, 508, 495, 483, 501, 452, 485, 532, 465, 538, 496, 468, 538, 575, 509, 465, 517, 544, 490, 554, 626, 578, 590, 527, 504, 480, 483, 555, 539, 551, 583, 553, 488, 522, 493, 615, 667, 625, 600, 499, 558, 450, 437, 564, 555, 513, 514, 533, 567, 553, 607, 528, 472, 552, 619, 533, 491, 532, 540, 552, 518, 548, 558, 508, 569, 568, 571, 606, 579, 520, 516, 532, 614, 590, 633, 708, 697, 647, 548, 550, 607, 564, 505, 564, 610, 614, 521, 595, 656, 609, 537, 473, 551, 584, 557, 526, 598, 622, 502, 530, 569, 572, 553, 506, 584, 541, 555, 604, 581, 468, 558, 544, 546, 575, 555, 504, 466, 476, 508, 575, 599, 488, 597, 545, 507, 453, 539, 631, 492, 531, 579, 505, 580, 487, 497, 563, 488, 442, 502, 530, 549, 490, 444, 534, 558, 571, 557, 602, 591, 506, 495, 443, 515, 555, 596, 563, 527, 527, 579, 517, 446, 494, 479, 433, 507, 530, 479, 421, 499, 537, 488, 431, 480, 623, 553, 505, 537, 594, 550, 508, 534, 583, 597, 552, 513, 512, 592, 508, 461, 546, 553, 453, 424, 550, 551, 564, 532, 577, 529, 516, 478, 619, 621, 578, 624, 661, 586, 527, 612, 669, 726, 601, 612, 647, 631, 612, 676, 597, 586, 487, 620, 654, 510, 529, 514, 590, 678, 567, 562, 686, 639, 612, 587, 544, 667, 614, 472, 584, 593, 560, 537, 587, 587, 535, 477, 525, 583, 466, 494, 529, 512, 523, 501, 495, 519, 503, 531, 608, 557, 575, 589, 556, 577, 525, 547, 616, 513, 561, 659, 602, 502, 543, 617, 626, 643, 579, 549, 560, 503, 573, 617, 591, 667, 551, 578, 632, 565, 601, 561, 536, 630, 583, 556, 549, 583, 569, 529, 587, 660, 624, 551, 517, 635, 594, 522, 591, 653, 595, 441, 541, 675, 553, 499, 644, 570, 546, 509, 630, 663, 561, 601, 686, 598, 604, 600, 697, 720, 650, 720, 601, 513, 604, 687, 661, 586, 509, 549, 570, 537, 611, 686, 655, 515, 528, 555, 445, 486, 547, 553, 573, 504, 510, 487, 520, 523, 597, 605, 551, 578, 580, 549, 543, 532, 550, 591, 515, 595, 564, 557, 756, 771, 863, 746, 612, 832, 972, 881, 2267, 1379, 1977, 1527, 1352, 1214, 2473, 3234, 4009, 2041, 4084, 3291, 2444, 1564, 5012, 6517, 3268, 2375, 4969, 3988, 2051, 1752, 5405, 6448, 2273, 2651, 5052, 3864, 1329, 1851, 4786, 5401, 1496, 1883, 3301, 2617, 1065, 1295, 2920, 3272, 1093, 1678, 2161, 1630, 959, 1101, 1996, 1980, 778, 1593, 1682, 1144, 764, 977, 1683, 1466, 849, 1397, 1574, 1186, 626, 967, 1447, 1231, 1166, 890, 1138, 1315, 1009, 687, 1174, 1435, 1151, 823, 1058, 1217, 1036, 769, 1063, 1290, 1027, 1037, 1598, 1383, 771, 808, 1205, 1406, 1206, 2279, 3138, 2144, 922, 1244, 2447, 2553, 1379, 2487, 3416, 2342, 1142, 1385, 2583, 2610, 1104, 1562, 1870, 1345, 1076, 1114, 1503, 1388, 727, 980, 998, 813, 766, 900, 968, 859, 733, 884, 909, 750, 563, 714, 772, 750, 898, 1520, 1501, 963, 742, 805, 996, 887, 1164, 2204, 2232, 1256, 804, 1021, 1121, 994, 1228, 1784, 1952, 1279, 742, 1134, 1066, 1043, 1287, 1378, 1619, 1434, 854, 1293, 1290, 1154, 867, 1266, 1737, 1421, 712, 962, 1059, 1063, 1194, 2181, 2267, 1537, 1150, 1292, 1418, 1262, 1456, 2191, 2016, 1350, 1259, 1418, 1488, 1017, 1110, 1540, 1411, 1030, 944, 1058, 1086, 775, 1254, 1508, 1549, 1350, 1292, 1273, 1084, 1078, 1212, 1289, 1168, 1214, 1190, 1083, 942, 1026, 855, 1072, 1128, 792, 874, 1003, 945, 800, 811, 1042, 990, 638, 761, 963, 890, 809, 677, 770, 693, 643, 611, 689, 697, 615, 733, 714, 666, 671, 672, 727, 696, 668, 710, 593, 539, 543, 719, 703, 632, 674, 708, 718, 589, 691, 798, 742, 655, 616, 754, 802, 760, 721, 726, 670, 588, 635, 677, 720, 676, 659, 696, 675, 603, 666, 591, 682, 683, 565, 540, 735, 752, 654, 562, 582, 637, 702, 620, 573, 607, 581, 531, 629, 649, 584, 536, 537, 613, 542, 622, 713, 759, 617, 571, 639, 631, 637, 621, 670, 721, 591, 531, 545, 692, 694, 527, 573, 556, 531, 494, 541, 572, 529, 514, 590, 592, 520, 494, 584, 592, 571, 632, 645, 663, 692, 671, 626, 633, 658, 612, 522, 609, 740, 680, 551, 563, 590, 552, 492, 538, 585, 551, 533, 556, 540, 554, 561, 577, 587, 528, 558, 692, 616, 685, 692, 802, 668, 568, 604, 914, 930, 707, 634, 801, 770, 565, 561, 853, 974, 743, 562, 682, 658, 539, 550, 609, 823, 738, 614, 771, 754, 709, 525, 679, 953, 812, 854, 1003, 917, 778, 734, 1242, 1298, 666, 771, 904, 699, 534, 636, 982, 977, 688, 761, 873, 634, 606, 678, 739, 836, 572, 717, 795, 566, 570, 570, 654, 787, 594, 647, 797, 725, 613, 577, 808, 834, 664, 745, 943, 821, 658, 699, 898, 972, 690, 668, 857, 825, 572, 538, 685, 782, 738, 735, 738, 698, 594, 586, 608, 709, 645, 779, 742, 541, 547, 754, 760, 645, 472, 704, 729, 554, 487, 521, 704, 666, 461, 549, 592, 598, 484, 498, 610, 506, 412, 470, 517, 510, 491, 447, 523, 537, 463, 544, 569, 468, 493, 489, 562, 615, 472, 560, 536, 480, 413, 410, 501, 510, 518, 562, 564, 511, 493, 539, 484, 496, 426, 576, 571, 423, 450, 492, 550, 545, 428, 527, 468, 509, 433, 437, 539, 488, 452, 512, 470, 512, 417, 495, 562, 447, 457, 441, 399, 427, 440, 502, 509, 447]"
0.9589241147041321,-0.2685243487358093,-0.6898952722549438,0.17247571051120758,-0.5446807146072388,-0.7239216566085815,0.17035599052906036,-0.2986721992492676,1.1075019836425781,19.75,-0.17922449111938477,1.1157989501953125,25.5,0.006169795989990234,1.050710678100586,25.5,0.43961477279663086,0.5661964416503906,19.5,0.6290144920349121,-0.28367042541503906,20.25,"[458, 625, 696, 608, 620, 614, 698, 626, 476, 630, 672, 698, 662, 689, 761, 646, 474, 545, 543, 452, 465, 601, 598, 511, 461, 474, 516, 512, 505, 567, 590, 495, 504, 433, 561, 606, 515, 511, 514, 556, 505, 400, 487, 525, 549, 524, 440, 522, 523, 481, 512, 532, 545, 555, 546, 583, 544, 493, 579, 581, 476, 483, 636, 646, 508, 502, 593, 615, 521, 537, 627, 677, 497, 526, 479, 557, 640, 572, 508, 567, 476, 519, 519, 558, 582, 544, 467, 454, 544, 569, 547, 482, 530, 543, 545, 539, 504, 482, 512, 572, 513, 494, 560, 553, 628, 583, 499, 533, 481, 556, 509, 527, 624, 528, 495, 528, 558, 488, 508, 654, 584, 515, 500, 449, 545, 532, 490, 599, 491, 501, 466, 475, 542, 486, 492, 495, 577, 530, 526, 656, 608, 556, 507, 459, 563, 449, 505, 596, 606, 689, 631, 527, 555, 547, 512, 553, 597, 666, 647, 547, 547, 610, 561, 534, 558, 642, 644, 526, 587, 647, 531, 520, 526, 551, 632, 596, 590, 625, 594, 465, 522, 563, 585, 567, 641, 633, 682, 598, 535, 516, 482, 587, 585, 495, 550, 523, 552, 575, 512, 544, 610, 438, 503, 592, 563, 589, 598, 605, 531, 526, 536, 497, 546, 634, 588, 546, 566, 627, 555, 479, 547, 712, 646, 473, 569, 641, 570, 500, 584, 676, 545, 452, 492, 547, 584, 578, 571, 596, 619, 578, 574, 591, 531, 505, 538, 569, 504, 518, 508, 576, 585, 543, 524, 585, 602, 557, 507, 546, 561, 529, 522, 481, 547, 611, 526, 584, 603, 582, 549, 562, 571, 611, 511, 515, 541, 577, 579, 562, 572, 566, 528, 486, 502, 558, 592, 578, 615, 600, 538, 537, 543, 566, 613, 558, 533, 610, 719, 642, 674, 683, 602, 641, 596, 687, 647, 662, 634, 563, 586, 649, 655, 589, 566, 611, 585, 613, 576, 538, 635, 612, 532, 569, 528, 488, 534, 597, 601, 529, 555, 504, 568, 646, 589, 684, 739, 682, 553, 597, 570, 579, 636, 660, 745, 684, 525, 581, 608, 624, 605, 682, 706, 547, 503, 535, 628, 638, 585, 686, 665, 574, 623, 605, 645, 687, 643, 648, 656, 641, 591, 653, 601, 615, 603, 660, 701, 606, 563, 660, 551, 510, 590, 574, 555, 543, 531, 617, 584, 464, 546, 673, 688, 613, 701, 762, 676, 648, 635, 710, 718, 609, 660, 667, 563, 543, 528, 580, 607, 548, 663, 570, 514, 519, 501, 568, 519, 619, 693, 619, 458, 521, 554, 542, 553, 627, 751, 693, 555, 687, 649, 581, 588, 620, 636, 651, 632, 684, 601, 601, 669, 563, 552, 640, 682, 647, 551, 562, 668, 628, 520, 518, 659, 651, 561, 492, 586, 637, 720, 713, 795, 825, 695, 658, 737, 770, 1224, 723, 1139, 1059, 759, 810, 1299, 1667, 3758, 1385, 3276, 2730, 1771, 1331, 4109, 5682, 6342, 2903, 7201, 5549, 3244, 2268, 9038, 11476, 5316, 4960, 8933, 6332, 2930, 3412, 10336, 11564, 2185, 4635, 6161, 3908, 1326, 2679, 5820, 5434, 1688, 2340, 2696, 1807, 1054, 1521, 2430, 2421, 1499, 2773, 3731, 2443, 1075, 1655, 3234, 3277, 1041, 2682, 3302, 2019, 848, 1489, 2677, 2480, 955, 1302, 1582, 1251, 817, 850, 1243, 1293, 1245, 805, 866, 1070, 1008, 758, 874, 1213, 1188, 856, 1008, 1174, 934, 718, 1045, 1339, 913, 1055, 1157, 1027, 698, 825, 1014, 1041, 882, 1576, 1512, 817, 706, 958, 1229, 889, 965, 1624, 1471, 660, 792, 1034, 1264, 837, 755, 925, 808, 562, 650, 747, 839, 711, 745, 758, 765, 701, 609, 588, 680, 739, 803, 948, 863, 732, 664, 666, 697, 682, 829, 1134, 1160, 850, 800, 793, 1004, 854, 1276, 2375, 2103, 928, 927, 928, 1368, 1013, 1822, 2919, 2425, 1110, 1060, 1110, 1487, 1060, 1816, 2548, 1975, 1335, 1246, 1455, 1613, 1114, 1843, 2343, 1871, 1391, 1264, 1606, 1508, 1133, 1396, 1933, 1894, 1421, 1274, 1261, 1307, 1046, 1121, 1266, 1352, 1394, 1146, 975, 1159, 1053, 1057, 1197, 1015, 1246, 910, 836, 1172, 788, 1073, 1193, 1123, 888, 787, 902, 984, 834, 809, 942, 916, 782, 819, 962, 914, 761, 854, 906, 831, 829, 927, 986, 819, 822, 714, 886, 920, 683, 835, 776, 833, 806, 688, 831, 844, 627, 593, 747, 812, 823, 607, 664, 629, 574, 591, 634, 811, 740, 660, 723, 839, 747, 591, 624, 897, 820, 669, 806, 751, 701, 573, 727, 868, 705, 687, 654, 590, 622, 588, 693, 689, 609, 554, 579, 507, 495, 442, 548, 559, 452, 645, 606, 591, 585, 591, 623, 584, 607, 673, 580, 564, 622, 641, 649, 621, 649, 782, 736, 659, 725, 723, 665, 650, 697, 596, 637, 622, 660, 651, 647, 592, 541, 582, 553, 547, 606, 631, 580, 557, 562, 606, 544, 548, 538, 578, 572, 634, 648, 589, 572, 533, 526, 585, 496, 511, 557, 511, 509, 561, 595, 563, 541, 514, 533, 599, 644, 671, 586, 548, 565, 592, 678, 523, 589, 567, 479, 470, 531, 546, 513, 577, 548, 486, 520, 619, 656, 553, 507, 620, 590, 535, 592, 633, 525, 572, 630, 612, 595, 613, 663, 682, 525, 587, 737, 547, 603, 698, 632, 630, 664, 821, 753, 675, 633, 829, 849, 648, 595, 761, 834, 848, 728, 1037, 954, 681, 522, 959, 1168, 934, 660, 1093, 1084, 800, 623, 1015, 1325, 655, 850, 1060, 883, 706, 698, 705, 823, 676, 729, 825, 726, 646, 761, 776, 742, 634, 596, 722, 652, 680, 692, 745, 733, 680, 713, 811, 623, 607, 774, 803, 786, 651, 650, 707, 645, 619, 621, 600, 679, 611, 652, 698, 587, 559, 575, 674, 719, 583, 629, 661, 639, 474, 532, 673, 640, 546, 553, 605, 615, 459, 563, 727, 643, 546, 569, 694, 639, 499, 558, 739, 738, 544, 552, 668, 628, 420, 487, 662, 716, 505, 528, 588, 460, 390, 476, 520, 521, 490, 581, 586, 504, 510, 565, 588, 552, 420, 483, 548, 492, 422, 501, 563, 522, 555, 541, 547, 503, 461, 433, 490, 581, 483, 466, 441, 466, 406, 393, 410, 423, 498, 482, 409, 441, 460, 437, 463, 495, 343, 386, 389, 339, 347, 396, 389, 374, 419, 418, 416, 424, 394, 432, 431, 383]"
0.9158555865287781,-0.3017503321170807,-0.7041574120521545,0.07167033851146698,-0.31609871983528137,-0.47007977962493896,0.1002638041973114,-0.39015626907348633,1.3659954071044922,16.0,-0.17400598526000977,0.9992122650146484,22.25,-0.08445596694946289,0.8306980133056641,15.0,0.06331586837768555,0.9487152099609375,23.5,0.6386675834655762,0.8195400238037109,15.75,"[532, 624, 738, 718, 692, 717, 741, 625, 538, 631, 696, 662, 682, 716, 700, 593, 443, 501, 583, 523, 570, 699, 637, 483, 495, 503, 579, 537, 574, 539, 527, 502, 484, 507, 457, 413, 438, 436, 486, 508, 578, 532, 479, 483, 524, 527, 567, 585, 598, 500, 518, 583, 504, 500, 611, 655, 497, 518, 494, 488, 527, 500, 541, 567, 571, 526, 483, 468, 509, 496, 457, 555, 542, 541, 520, 502, 490, 464, 471, 537, 566, 557, 499, 512, 562, 538, 466, 551, 560, 516, 519, 526, 533, 409, 479, 565, 474, 529, 550, 570, 550, 502, 561, 556, 568, 547, 549, 578, 493, 581, 610, 527, 536, 506, 526, 589, 580, 597, 604, 520, 593, 554, 490, 510, 623, 605, 539, 548, 530, 581, 523, 499, 504, 554, 523, 484, 585, 579, 492, 491, 514, 609, 593, 546, 646, 587, 487, 498, 497, 532, 528, 574, 557, 488, 539, 597, 519, 449, 505, 585, 492, 549, 558, 568, 552, 547, 548, 472, 582, 597, 584, 568, 596, 626, 619, 551, 562, 559, 624, 561, 525, 574, 586, 601, 479, 541, 598, 554, 529, 500, 562, 553, 483, 515, 550, 517, 587, 529, 552, 552, 598, 688, 606, 535, 577, 575, 615, 671, 518, 607, 621, 556, 596, 569, 631, 649, 461, 529, 640, 536, 515, 608, 612, 593, 563, 517, 469, 477, 465, 467, 512, 538, 655, 570, 518, 507, 570, 565, 475, 582, 541, 509, 470, 450, 506, 546, 524, 547, 594, 543, 498, 539, 510, 434, 481, 568, 485, 458, 524, 540, 483, 477, 537, 570, 576, 438, 521, 587, 563, 535, 559, 599, 509, 468, 474, 525, 587, 561, 522, 536, 468, 479, 486, 549, 646, 643, 575, 537, 556, 520, 439, 477, 527, 568, 502, 518, 670, 628, 592, 602, 529, 592, 565, 583, 576, 482, 547, 554, 483, 522, 592, 639, 604, 536, 552, 591, 576, 534, 592, 652, 556, 584, 529, 587, 593, 522, 575, 546, 485, 518, 503, 616, 565, 581, 602, 472, 611, 552, 523, 573, 572, 557, 587, 583, 572, 616, 505, 507, 549, 564, 590, 532, 608, 593, 678, 589, 511, 631, 655, 640, 549, 563, 657, 575, 472, 583, 685, 643, 604, 523, 578, 638, 563, 524, 678, 678, 514, 585, 630, 619, 637, 541, 691, 652, 586, 553, 585, 650, 669, 651, 685, 638, 643, 614, 568, 627, 603, 707, 650, 611, 624, 557, 628, 569, 576, 654, 567, 569, 620, 545, 631, 568, 616, 673, 586, 588, 667, 556, 554, 643, 569, 627, 537, 571, 703, 668, 622, 635, 592, 566, 494, 589, 1563, 885, 1192, 1206, 970, 585, 1072, 1744, 2457, 1477, 2670, 2388, 1369, 861, 2430, 3516, 2373, 1302, 2462, 2306, 1513, 1048, 2176, 3239, 5396, 985, 4907, 4772, 2875, 706, 5215, 7980, 7084, 2928, 8879, 8032, 3559, 1768, 8719, 11938, 5790, 4282, 10094, 8310, 2847, 2292, 8647, 11202, 3010, 2727, 5654, 4447, 1510, 1606, 4941, 6147, 1080, 838, 1382, 1242, 756, 769, 1258, 1609, 1008, 1734, 1706, 911, 715, 1044, 1154, 970, 992, 2985, 3158, 1425, 1029, 1501, 2058, 1710, 1124, 2613, 2723, 1252, 1108, 1460, 1981, 1793, 912, 1987, 2138, 1115, 866, 1281, 1659, 1385, 874, 1606, 2185, 1493, 700, 1114, 1513, 1516, 668, 1184, 1788, 1407, 691, 807, 1200, 1227, 595, 864, 1026, 937, 761, 691, 824, 810, 694, 1093, 1164, 890, 802, 925, 999, 820, 806, 1227, 1203, 916, 906, 1047, 931, 789, 651, 828, 991, 770, 710, 733, 751, 715, 656, 882, 788, 616, 623, 642, 745, 635, 1036, 2092, 1956, 864, 952, 1054, 954, 764, 2044, 3584, 3212, 1327, 1665, 1710, 1315, 1127, 2656, 4070, 3397, 1573, 1792, 1900, 1730, 1320, 2474, 2918, 2247, 1696, 1507, 1669, 1889, 1554, 1560, 1488, 1503, 1477, 1090, 1190, 1255, 1263, 1024, 1122, 1153, 1101, 892, 898, 825, 895, 691, 752, 812, 751, 614, 770, 735, 686, 931, 913, 905, 860, 786, 860, 717, 788, 1125, 1232, 1169, 1003, 959, 910, 853, 985, 1176, 1335, 1217, 1163, 1123, 1029, 943, 984, 973, 949, 1012, 1044, 892, 916, 924, 887, 925, 778, 824, 817, 713, 766, 715, 760, 790, 699, 705, 748, 651, 673, 660, 716, 532, 617, 714, 697, 652, 624, 656, 553, 636, 722, 683, 614, 584, 637, 672, 547, 617, 702, 566, 525, 610, 615, 598, 611, 778, 830, 560, 588, 691, 641, 623, 643, 771, 736, 664, 633, 539, 611, 616, 669, 766, 615, 648, 698, 621, 619, 543, 631, 602, 570, 490, 506, 543, 594, 597, 613, 646, 563, 641, 669, 603, 594, 703, 752, 531, 556, 675, 705, 652, 626, 677, 660, 540, 573, 626, 602, 488, 544, 584, 576, 622, 544, 623, 610, 523, 555, 663, 694, 696, 550, 540, 592, 637, 625, 667, 716, 631, 587, 598, 600, 581, 584, 504, 544, 549, 686, 660, 596, 598, 565, 562, 520, 586, 566, 575, 572, 597, 639, 619, 583, 584, 550, 587, 622, 635, 641, 543, 557, 549, 519, 549, 621, 642, 699, 608, 601, 595, 598, 652, 647, 663, 699, 687, 625, 538, 569, 651, 643, 593, 579, 651, 634, 581, 718, 682, 588, 544, 594, 735, 605, 703, 700, 631, 648, 577, 574, 767, 716, 750, 708, 663, 698, 605, 685, 928, 852, 754, 653, 1004, 846, 675, 711, 1210, 1283, 855, 836, 1250, 966, 697, 698, 1348, 1495, 682, 766, 976, 879, 602, 582, 1120, 1104, 525, 544, 686, 693, 608, 522, 620, 637, 597, 501, 615, 720, 690, 561, 612, 730, 571, 511, 565, 560, 530, 574, 654, 640, 555, 521, 529, 568, 519, 584, 659, 583, 548, 471, 501, 596, 510, 467, 600, 597, 567, 473, 438, 549, 554, 504, 523, 564, 519, 591, 579, 622, 636, 521, 509, 536, 465, 596, 657, 640, 544, 492, 583, 590, 465, 455, 541, 583, 528, 519, 565, 566, 478, 389, 420, 527, 533, 465, 473, 526, 414, 505, 519, 503, 476, 548, 592, 493, 428, 494, 544, 559, 434, 427, 545, 482, 472, 484, 550, 582, 481, 441, 523, 491, 450, 569, 584, 535, 536, 528, 493, 428, 429, 549, 578, 509, 464, 467, 454, 447, 464, 480, 500, 409, 366, 420, 458, 446, 413, 360, 407, 393, 403, 481, 442, 388]"
0.8631938099861145,-0.2834334671497345,-0.554963231086731,-0.02169717848300934,-0.2029799371957779,-0.2130299210548401,0.0395902618765831,-1.1163616180419922,1.8857002258300781,17.0,-0.3553295135498047,1.1545658111572266,18.5,-0.24689674377441406,1.6520977020263672,25.0,0.08812904357910156,0.9271144866943359,23.5,0.142059326171875,0.8581638336181641,28.25,"[576, 563, 546, 664, 803, 663, 547, 565, 542, 545, 485, 506, 694, 691, 546, 545, 480, 474, 504, 536, 595, 625, 529, 497, 584, 537, 542, 551, 585, 533, 439, 503, 518, 474, 471, 501, 513, 458, 439, 490, 457, 470, 450, 496, 513, 457, 435, 476, 485, 475, 513, 526, 483, 489, 595, 606, 604, 602, 578, 596, 569, 527, 540, 583, 559, 536, 525, 530, 586, 526, 498, 530, 430, 580, 527, 490, 568, 540, 528, 510, 417, 468, 513, 486, 504, 508, 509, 496, 491, 548, 592, 546, 468, 495, 528, 497, 462, 517, 491, 514, 448, 395, 468, 466, 518, 540, 530, 531, 558, 544, 560, 618, 507, 562, 627, 551, 583, 567, 564, 578, 542, 596, 630, 575, 556, 632, 627, 559, 474, 488, 566, 568, 555, 513, 521, 543, 561, 573, 533, 506, 554, 566, 536, 530, 640, 608, 488, 514, 564, 489, 479, 576, 583, 496, 515, 596, 613, 497, 556, 631, 533, 550, 571, 574, 610, 593, 635, 577, 567, 583, 556, 505, 530, 570, 554, 481, 534, 517, 624, 580, 465, 512, 563, 551, 576, 607, 621, 596, 580, 670, 551, 544, 488, 544, 583, 515, 526, 548, 541, 529, 526, 625, 632, 553, 556, 639, 652, 515, 580, 569, 544, 534, 512, 560, 572, 534, 647, 549, 588, 579, 553, 499, 579, 652, 495, 614, 585, 462, 438, 559, 608, 541, 587, 542, 544, 536, 517, 524, 546, 622, 583, 548, 552, 535, 555, 550, 601, 659, 556, 582, 485, 518, 564, 531, 640, 609, 624, 588, 502, 510, 523, 647, 623, 597, 607, 637, 634, 587, 576, 587, 602, 578, 540, 522, 611, 684, 606, 508, 546, 598, 554, 552, 593, 588, 592, 485, 625, 663, 519, 542, 575, 600, 589, 500, 532, 578, 561, 600, 601, 604, 524, 501, 503, 527, 584, 511, 567, 583, 470, 553, 574, 535, 502, 540, 606, 518, 390, 471, 500, 511, 527, 528, 542, 478, 435, 444, 497, 496, 570, 535, 582, 587, 587, 546, 484, 595, 525, 515, 596, 611, 561, 508, 504, 577, 523, 523, 632, 572, 599, 643, 617, 575, 472, 532, 612, 659, 613, 562, 568, 589, 625, 692, 717, 645, 598, 593, 547, 623, 675, 689, 570, 510, 664, 682, 536, 501, 620, 613, 608, 576, 635, 616, 627, 696, 590, 566, 554, 581, 680, 662, 731, 739, 653, 632, 628, 672, 685, 561, 651, 704, 575, 626, 653, 625, 605, 522, 656, 650, 585, 578, 685, 683, 663, 606, 565, 660, 845, 574, 720, 789, 685, 621, 666, 865, 1956, 886, 1757, 1842, 1027, 669, 1598, 2494, 3137, 1343, 3223, 3086, 1393, 896, 3050, 4462, 3390, 1972, 4250, 3656, 1668, 1304, 4013, 5333, 5620, 5177, 9674, 7595, 2881, 2839, 8583, 10427, 7966, 9073, 17433, 13408, 3945, 4851, 14945, 17613, 6263, 6686, 13663, 10722, 3040, 3828, 11509, 13789, 3900, 3090, 2167, 2380, 2057, 2191, 3055, 3817, 3406, 7349, 6882, 2686, 1897, 3906, 5388, 3553, 3531, 8971, 8843, 3599, 2321, 4871, 5811, 3117, 3009, 8630, 8911, 3814, 2244, 4189, 5063, 3248, 1807, 4727, 4773, 2085, 1474, 2375, 2864, 1912, 792, 1986, 2164, 1270, 755, 1052, 1301, 981, 684, 2146, 2736, 1744, 828, 1197, 1312, 1276, 970, 2772, 3382, 1954, 996, 1675, 1672, 1475, 1114, 1775, 2081, 1483, 1079, 1427, 1454, 1195, 875, 1091, 1315, 977, 791, 1206, 1033, 923, 654, 911, 914, 606, 582, 836, 762, 602, 844, 928, 786, 673, 587, 640, 671, 635, 847, 1091, 1149, 843, 702, 748, 831, 793, 1024, 1385, 1269, 908, 855, 970, 777, 758, 985, 1630, 1655, 1008, 943, 1107, 848, 795, 1014, 1676, 2105, 1463, 919, 1534, 1332, 1052, 1248, 1990, 2463, 1787, 1059, 1776, 1402, 1166, 1051, 1680, 2017, 1462, 928, 1348, 1044, 812, 1168, 1645, 1632, 1153, 816, 1022, 1010, 827, 1092, 1283, 1033, 774, 870, 853, 747, 755, 1080, 1032, 934, 897, 859, 996, 774, 803, 1218, 1384, 1461, 1167, 1018, 1118, 983, 948, 1659, 1766, 1378, 1245, 1286, 1218, 993, 1121, 1107, 1282, 1108, 1067, 977, 952, 844, 899, 877, 758, 923, 885, 646, 683, 733, 865, 853, 589, 861, 925, 615, 543, 804, 976, 799, 647, 891, 986, 738, 578, 874, 976, 770, 553, 762, 930, 648, 573, 759, 849, 738, 600, 642, 730, 640, 694, 672, 720, 721, 551, 630, 652, 646, 729, 705, 705, 804, 739, 671, 735, 728, 784, 628, 680, 687, 724, 661, 666, 650, 660, 615, 632, 690, 639, 659, 651, 623, 575, 611, 581, 704, 659, 571, 652, 615, 605, 626, 636, 630, 689, 631, 584, 607, 611, 555, 537, 554, 597, 714, 593, 566, 628, 612, 533, 521, 504, 624, 683, 664, 577, 561, 600, 558, 507, 577, 665, 584, 544, 574, 592, 635, 541, 615, 583, 545, 606, 704, 712, 670, 579, 582, 637, 641, 578, 650, 721, 585, 624, 563, 559, 608, 603, 541, 556, 560, 590, 625, 603, 593, 568, 683, 681, 641, 605, 689, 695, 651, 590, 698, 743, 687, 654, 669, 750, 747, 630, 634, 678, 638, 639, 682, 674, 665, 673, 691, 609, 606, 662, 666, 641, 621, 610, 571, 570, 648, 624, 549, 557, 519, 569, 688, 648, 736, 566, 574, 614, 545, 636, 687, 705, 881, 640, 803, 869, 738, 604, 619, 844, 764, 683, 714, 736, 728, 635, 636, 666, 614, 658, 907, 757, 556, 486, 794, 886, 723, 867, 1222, 993, 663, 726, 1155, 1195, 699, 753, 1010, 901, 625, 699, 973, 1034, 713, 636, 676, 678, 581, 527, 636, 724, 686, 591, 643, 651, 560, 547, 559, 652, 609, 558, 611, 617, 595, 598, 615, 644, 561, 570, 696, 693, 637, 615, 631, 603, 573, 523, 642, 677, 556, 504, 524, 588, 565, 601, 691, 678, 631, 548, 506, 605, 559, 621, 582, 593, 607, 583, 558, 524, 509, 561, 536, 527, 472, 570, 591, 522, 413, 477, 559, 509, 374, 474, 584, 467, 498, 467, 430, 434, 423, 391, 484, 484, 479, 518, 463, 472, 540, 507, 541, 530, 487, 497, 478, 493, 445, 440, 435, 458, 418, 478, 560, 447, 378, 436, 411, 437, 437, 559, 532, 433, 535, 567, 453, 426, 422, 466, 500, 481, 382, 411, 456, 386, 417, 489, 486, 478, 437, 406, 460, 395]"
0.7716211676597595,-0.23486682772636414,-0.4491003155708313,-0.20837585628032684,-0.11798505485057831,-0.062084779143333435,-0.15010550618171692,-0.46314752101898193,1.0103702545166016,17.25,-0.011678099632263184,0.38437843322753906,21.75,0.653938889503479,-0.19741058349609375,26.25,0.6662412881851196,-0.06666183471679688,23.0,0.6834074258804321,-0.135040283203125,17.5,"[612, 634, 689, 649, 655, 649, 687, 633, 528, 588, 645, 688, 675, 586, 602, 597, 500, 561, 622, 643, 587, 555, 566, 500, 450, 548, 642, 597, 618, 631, 580, 497, 514, 508, 548, 625, 555, 548, 547, 499, 547, 539, 477, 525, 465, 519, 465, 414, 547, 493, 548, 557, 531, 543, 483, 485, 523, 521, 505, 526, 593, 578, 486, 474, 545, 502, 438, 434, 480, 503, 526, 493, 535, 528, 558, 473, 515, 602, 535, 491, 675, 652, 551, 575, 590, 583, 524, 584, 579, 587, 564, 518, 490, 576, 547, 521, 565, 505, 496, 496, 510, 469, 515, 588, 541, 516, 481, 450, 524, 528, 581, 577, 514, 496, 523, 546, 519, 436, 443, 479, 508, 517, 575, 654, 622, 510, 539, 537, 499, 442, 543, 646, 594, 468, 504, 541, 601, 538, 542, 642, 652, 549, 514, 614, 556, 565, 525, 552, 605, 617, 571, 506, 613, 662, 521, 602, 687, 618, 566, 505, 467, 574, 662, 640, 559, 504, 559, 568, 571, 559, 612, 593, 579, 573, 571, 646, 572, 504, 577, 603, 562, 486, 540, 642, 621, 489, 495, 603, 625, 567, 523, 602, 607, 483, 494, 610, 639, 595, 636, 656, 635, 569, 569, 594, 599, 644, 612, 584, 559, 531, 503, 483, 513, 571, 538, 572, 622, 570, 580, 569, 555, 498, 476, 588, 621, 550, 484, 489, 548, 480, 455, 499, 538, 622, 563, 517, 535, 531, 512, 531, 469, 511, 576, 560, 572, 564, 536, 522, 551, 570, 634, 651, 680, 607, 691, 686, 543, 537, 611, 539, 628, 589, 629, 709, 433, 460, 493, 508, 555, 564, 559, 509, 470, 539, 484, 522, 553, 649, 631, 469, 550, 613, 565, 491, 479, 618, 636, 546, 572, 561, 570, 575, 518, 508, 545, 596, 529, 581, 568, 486, 561, 519, 541, 566, 664, 565, 507, 485, 507, 505, 563, 666, 574, 575, 594, 515, 452, 546, 658, 637, 617, 554, 551, 549, 568, 546, 521, 586, 613, 602, 607, 559, 583, 640, 678, 656, 474, 520, 651, 636, 528, 529, 597, 620, 520, 481, 562, 667, 556, 551, 684, 578, 600, 636, 550, 438, 537, 682, 681, 559, 541, 630, 627, 527, 527, 638, 642, 531, 540, 522, 607, 630, 557, 497, 514, 508, 590, 614, 518, 576, 573, 505, 526, 506, 501, 580, 640, 495, 588, 600, 542, 526, 503, 621, 688, 569, 614, 645, 654, 647, 531, 627, 637, 523, 550, 569, 601, 558, 681, 633, 666, 788, 683, 620, 673, 705, 929, 819, 856, 888, 698, 584, 896, 1004, 1372, 1137, 1594, 1400, 961, 812, 1645, 1989, 3368, 1296, 2104, 2256, 1714, 1024, 2609, 4114, 6026, 4494, 5463, 5193, 3065, 2274, 4526, 6823, 6568, 8617, 11908, 8564, 3423, 3795, 7812, 9451, 4820, 9799, 13360, 8667, 2254, 4534, 9101, 9696, 2251, 8267, 10792, 6540, 1240, 4212, 7941, 7306, 1435, 5516, 7164, 4293, 1072, 2782, 5183, 4749, 1044, 3012, 3666, 2083, 818, 1537, 2538, 2243, 1087, 1921, 2187, 1382, 1024, 1246, 1673, 1669, 1242, 2209, 2839, 1956, 1217, 1503, 1533, 1635, 1536, 4160, 5111, 2993, 1583, 2521, 2149, 2066, 1425, 3832, 4581, 2801, 1512, 2130, 1992, 1908, 958, 1801, 1970, 1576, 1007, 1141, 1508, 1337, 1068, 1272, 1026, 1225, 1169, 1011, 1429, 1228, 942, 1043, 820, 1075, 933, 874, 1162, 1002, 797, 694, 765, 818, 658, 629, 705, 709, 794, 720, 710, 851, 640, 694, 754, 674, 708, 617, 588, 651, 612, 713, 648, 598, 865, 1051, 945, 684, 742, 717, 656, 715, 1347, 2217, 2078, 1034, 1105, 1218, 881, 862, 1773, 2438, 2063, 933, 1473, 1457, 1200, 963, 2032, 2972, 2432, 1413, 1564, 2073, 1999, 1348, 1885, 3450, 3792, 1953, 1636, 2393, 2113, 1770, 1513, 3091, 3210, 1617, 1331, 1825, 1869, 1564, 1215, 2157, 2239, 1198, 1055, 1317, 1296, 1102, 1172, 1491, 1347, 1035, 896, 808, 919, 996, 1088, 1187, 956, 710, 736, 763, 752, 850, 649, 605, 801, 798, 584, 654, 630, 661, 765, 716, 747, 805, 783, 744, 675, 682, 846, 769, 576, 682, 762, 713, 610, 700, 818, 843, 789, 804, 831, 793, 769, 716, 764, 835, 805, 811, 791, 645, 676, 768, 717, 799, 811, 748, 700, 667, 693, 676, 758, 797, 766, 802, 744, 715, 752, 683, 776, 733, 673, 711, 771, 762, 799, 766, 701, 768, 653, 671, 706, 705, 710, 619, 741, 682, 674, 672, 798, 709, 631, 764, 702, 682, 688, 685, 700, 682, 627, 699, 674, 598, 561, 592, 660, 654, 618, 643, 635, 649, 644, 616, 570, 586, 586, 647, 694, 674, 741, 776, 666, 615, 629, 676, 607, 564, 718, 736, 658, 537, 583, 702, 582, 578, 599, 600, 623, 579, 622, 643, 607, 586, 514, 531, 676, 568, 573, 681, 688, 597, 630, 651, 577, 534, 590, 702, 545, 635, 660, 563, 518, 526, 602, 616, 521, 564, 585, 508, 520, 507, 543, 632, 573, 570, 623, 584, 497, 559, 534, 625, 529, 701, 749, 685, 572, 605, 631, 585, 586, 665, 715, 588, 612, 619, 586, 603, 691, 640, 715, 686, 653, 660, 606, 706, 776, 633, 674, 688, 670, 521, 712, 885, 874, 601, 648, 794, 724, 505, 841, 1100, 996, 554, 861, 980, 797, 551, 1150, 1464, 996, 576, 826, 948, 956, 700, 914, 1222, 763, 617, 632, 649, 685, 687, 757, 854, 1048, 585, 867, 922, 734, 604, 1277, 1591, 887, 560, 694, 832, 690, 591, 1083, 1246, 607, 508, 530, 548, 513, 560, 557, 597, 484, 590, 664, 519, 513, 569, 646, 672, 506, 615, 656, 644, 597, 619, 727, 677, 617, 612, 554, 483, 608, 576, 626, 698, 704, 597, 578, 568, 614, 616, 678, 768, 643, 545, 600, 593, 645, 599, 658, 783, 590, 712, 684, 533, 565, 612, 675, 680, 596, 691, 624, 539, 521, 656, 682, 608, 678, 602, 598, 570, 589, 557, 574, 632, 493, 488, 505, 470, 498, 526, 539, 503, 505, 516, 551, 529, 432, 505, 567, 531, 498, 409, 498, 510, 509, 460, 492, 569, 548, 418, 500, 545, 530, 451, 472, 533, 533, 481, 469, 523, 504, 417, 427, 480, 573, 522, 490, 465, 470, 420, 412, 514, 507, 508, 483, 426, 441, 469, 423, 438, 507, 520, 500, 422, 425, 543, 482, 422]"
0.732338011264801,-0.2761191427707672,-0.4027230143547058,-0.2654435634613037,-0.17042145133018494,-0.012587476521730423,-0.20276060700416565,-0.030749201774597168,0.9351253509521484,20.5,0.6347247362136841,0.2524852752685547,28.25,0.637299656867981,0.3121376037597656,22.0,0.6451674699783325,0.0,22.0,0.6468840837478638,0.25119781494140625,29.0,"[588, 596, 625, 607, 605, 606, 626, 599, 604, 616, 597, 555, 582, 635, 657, 587, 493, 583, 571, 581, 564, 516, 565, 545, 501, 542, 511, 431, 417, 468, 617, 587, 476, 471, 474, 467, 422, 475, 518, 537, 418, 499, 556, 494, 493, 507, 517, 515, 528, 530, 553, 495, 444, 487, 528, 533, 584, 587, 602, 524, 546, 567, 514, 580, 455, 534, 526, 512, 563, 541, 477, 502, 479, 586, 617, 623, 570, 559, 540, 521, 527, 538, 628, 595, 510, 475, 571, 607, 510, 586, 591, 554, 547, 549, 532, 497, 523, 532, 482, 563, 510, 494, 524, 517, 602, 511, 564, 594, 446, 476, 633, 642, 595, 513, 559, 625, 537, 548, 596, 595, 634, 623, 546, 587, 621, 601, 621, 625, 597, 569, 455, 488, 563, 569, 474, 478, 499, 459, 484, 510, 522, 526, 452, 458, 544, 486, 497, 558, 590, 584, 524, 509, 500, 522, 520, 512, 509, 557, 577, 464, 496, 590, 623, 526, 462, 536, 553, 526, 523, 595, 639, 622, 549, 552, 557, 567, 516, 528, 531, 526, 558, 471, 502, 529, 531, 529, 506, 576, 636, 454, 516, 584, 530, 574, 555, 530, 607, 566, 520, 578, 592, 654, 514, 507, 614, 631, 539, 482, 541, 610, 586, 577, 619, 655, 642, 580, 517, 555, 572, 622, 595, 507, 554, 530, 511, 547, 554, 575, 507, 442, 580, 552, 531, 638, 608, 577, 502, 499, 558, 471, 475, 570, 665, 657, 549, 563, 656, 635, 555, 569, 592, 545, 538, 616, 623, 612, 518, 486, 568, 511, 473, 514, 540, 583, 579, 546, 615, 613, 520, 515, 467, 541, 526, 517, 572, 585, 577, 523, 505, 568, 600, 536, 577, 499, 501, 532, 524, 605, 567, 543, 557, 610, 580, 555, 569, 548, 583, 681, 599, 496, 557, 618, 647, 545, 632, 586, 497, 518, 500, 476, 490, 561, 597, 540, 535, 527, 554, 547, 535, 580, 573, 502, 583, 601, 599, 641, 598, 619, 697, 565, 589, 656, 607, 616, 599, 665, 523, 506, 546, 564, 564, 528, 529, 614, 506, 473, 548, 621, 546, 484, 589, 577, 596, 559, 604, 624, 532, 548, 536, 555, 724, 608, 533, 546, 647, 593, 586, 670, 578, 568, 612, 607, 570, 586, 601, 624, 546, 546, 525, 554, 582, 582, 644, 557, 562, 599, 537, 541, 638, 653, 572, 600, 586, 591, 565, 558, 564, 550, 604, 620, 571, 588, 668, 696, 630, 570, 609, 635, 842, 683, 839, 843, 775, 653, 764, 921, 1317, 1034, 1504, 1318, 919, 796, 1313, 1711, 3036, 3820, 7061, 5553, 1827, 1849, 5164, 6369, 5456, 8783, 15708, 11805, 3240, 3863, 11495, 13576, 4450, 9095, 14833, 10420, 2443, 4078, 11224, 12442, 2088, 5258, 7578, 4960, 1321, 2499, 5966, 6167, 1062, 2930, 3784, 2343, 830, 1499, 2944, 2778, 856, 1526, 1967, 1297, 852, 1325, 1389, 1289, 1053, 2081, 2211, 1190, 958, 1405, 1573, 1216, 1461, 2485, 2708, 1543, 1210, 1559, 2089, 2084, 1318, 2222, 2551, 1512, 943, 1377, 1759, 1797, 770, 1528, 1715, 1030, 635, 1040, 1223, 1072, 663, 800, 980, 799, 759, 646, 818, 838, 947, 885, 726, 929, 906, 628, 777, 854, 1221, 1117, 812, 1159, 1001, 736, 902, 970, 1098, 1017, 833, 1009, 789, 686, 791, 794, 765, 718, 724, 719, 653, 560, 613, 774, 630, 563, 564, 627, 637, 518, 627, 643, 709, 780, 767, 692, 711, 693, 666, 717, 1442, 2143, 1828, 899, 1275, 1248, 819, 858, 2585, 4374, 3709, 1298, 2255, 2515, 1458, 944, 3006, 4906, 4386, 1994, 2622, 3434, 2293, 1311, 2482, 3063, 3462, 2402, 1979, 2956, 2031, 1619, 1325, 2182, 2855, 2065, 1214, 1655, 1253, 1370, 1090, 2225, 2432, 1405, 1050, 1175, 1246, 1177, 1073, 1549, 1454, 971, 1047, 1113, 1242, 965, 1110, 1058, 1103, 1066, 1191, 1050, 907, 879, 1204, 1202, 1033, 1030, 1115, 935, 697, 918, 803, 876, 857, 715, 848, 862, 667, 663, 567, 736, 871, 700, 722, 792, 590, 616, 704, 795, 753, 730, 699, 608, 577, 605, 743, 826, 791, 717, 682, 571, 664, 666, 752, 777, 792, 655, 634, 653, 652, 687, 692, 728, 793, 716, 649, 736, 654, 661, 706, 714, 753, 718, 582, 688, 701, 565, 628, 707, 673, 746, 707, 679, 760, 652, 680, 710, 630, 729, 767, 597, 663, 617, 575, 535, 614, 616, 539, 582, 628, 632, 570, 479, 645, 708, 571, 594, 693, 634, 615, 557, 635, 770, 626, 561, 629, 628, 704, 689, 668, 704, 654, 532, 586, 668, 596, 575, 604, 623, 607, 633, 587, 532, 550, 512, 589, 602, 607, 566, 479, 528, 455, 530, 593, 523, 557, 586, 639, 614, 631, 632, 740, 711, 649, 630, 652, 696, 736, 602, 588, 694, 646, 555, 497, 620, 639, 578, 677, 689, 622, 613, 547, 577, 677, 615, 582, 600, 653, 535, 534, 643, 606, 655, 624, 576, 610, 568, 470, 512, 547, 559, 635, 640, 566, 570, 556, 541, 549, 703, 671, 584, 680, 647, 662, 612, 545, 569, 564, 506, 646, 656, 612, 584, 562, 625, 688, 562, 520, 674, 569, 517, 621, 612, 700, 601, 608, 655, 558, 607, 608, 551, 645, 727, 631, 571, 631, 644, 776, 619, 635, 697, 644, 626, 706, 782, 647, 653, 727, 635, 672, 653, 736, 809, 682, 633, 799, 653, 662, 701, 778, 905, 835, 646, 930, 854, 660, 537, 888, 1100, 849, 612, 730, 719, 678, 656, 801, 1063, 650, 517, 600, 749, 638, 579, 575, 648, 680, 595, 742, 737, 625, 649, 747, 773, 669, 667, 678, 653, 625, 672, 663, 690, 657, 757, 696, 715, 630, 632, 577, 616, 697, 669, 701, 645, 507, 642, 516, 573, 614, 769, 836, 613, 549, 762, 702, 623, 654, 836, 821, 583, 596, 743, 795, 681, 505, 672, 672, 565, 555, 621, 771, 635, 494, 526, 564, 523, 573, 624, 603, 529, 470, 487, 527, 481, 475, 444, 555, 562, 592, 531, 530, 485, 521, 513, 551, 554, 467, 470, 522, 456, 359, 380, 424, 457, 492, 471, 454, 423, 363, 402, 456, 479, 389, 433, 398, 315, 370, 401, 387, 413, 436, 449, 448, 393, 371, 394, 463, 449, 397, 486, 496, 406, 397, 424, 501, 459, 385, 425, 443, 398, 393, 446, 436, 373]"
0.7174457907676697,-0.2838187515735626,-0.42077338695526123,-0.2564491927623749,-0.15100401639938354,-0.026136018335819244,-0.1678026020526886,0.5940802097320557,-0.9045124053955078,15.5,0.6175405979156494,0.0,16.5,0.677908182144165,0.2460479736328125,20.5,0.7073767185211182,0.1826763153076172,22.25,0.7118113040924072,0.0,25.0,"[597, 547, 657, 682, 593, 681, 656, 549, 660, 598, 602, 705, 664, 609, 639, 641, 615, 632, 585, 595, 551, 467, 546, 570, 562, 613, 554, 543, 530, 523, 563, 494, 524, 543, 546, 497, 544, 510, 520, 536, 531, 513, 575, 533, 461, 542, 615, 540, 453, 430, 498, 443, 471, 568, 522, 440, 514, 453, 443, 484, 500, 580, 487, 441, 499, 508, 520, 558, 491, 473, 531, 560, 571, 439, 468, 591, 518, 429, 527, 573, 640, 525, 487, 606, 468, 482, 509, 515, 650, 601, 518, 509, 542, 614, 541, 478, 614, 536, 494, 469, 533, 525, 473, 536, 511, 499, 530, 461, 554, 607, 634, 587, 536, 541, 565, 592, 611, 556, 559, 559, 637, 615, 599, 631, 655, 651, 648, 608, 611, 523, 500, 591, 531, 507, 578, 622, 550, 568, 617, 581, 398, 489, 682, 665, 639, 476, 501, 518, 428, 461, 485, 613, 567, 504, 465, 560, 602, 504, 497, 590, 417, 483, 452, 485, 533, 508, 543, 537, 585, 508, 487, 536, 552, 484, 563, 602, 575, 537, 447, 497, 523, 510, 545, 537, 579, 534, 520, 490, 449, 505, 581, 586, 549, 565, 594, 575, 570, 516, 552, 609, 596, 607, 539, 476, 608, 580, 565, 559, 565, 524, 440, 401, 562, 569, 481, 540, 583, 614, 497, 429, 590, 609, 530, 575, 513, 559, 480, 491, 560, 591, 617, 568, 510, 557, 572, 615, 521, 577, 661, 536, 588, 603, 532, 529, 544, 555, 546, 536, 634, 593, 516, 582, 621, 624, 531, 520, 509, 577, 550, 464, 569, 624, 551, 542, 571, 537, 523, 587, 605, 490, 513, 625, 557, 578, 540, 560, 560, 460, 479, 566, 652, 634, 563, 519, 553, 559, 555, 649, 596, 567, 531, 453, 570, 574, 539, 579, 579, 544, 499, 568, 595, 572, 556, 543, 656, 617, 461, 526, 571, 510, 542, 593, 632, 582, 472, 534, 581, 589, 524, 570, 574, 602, 482, 461, 462, 531, 593, 583, 648, 618, 484, 572, 539, 550, 562, 577, 615, 573, 533, 602, 563, 483, 572, 641, 661, 663, 629, 707, 699, 708, 781, 697, 628, 602, 540, 547, 673, 762, 705, 609, 532, 541, 614, 681, 679, 715, 669, 663, 462, 575, 674, 701, 625, 579, 640, 620, 610, 704, 665, 649, 625, 565, 680, 662, 775, 705, 683, 698, 620, 599, 675, 752, 1220, 794, 1224, 1453, 1066, 663, 975, 1385, 1392, 874, 1630, 1812, 1140, 809, 1505, 1882, 1191, 1262, 2566, 2411, 1075, 1093, 1648, 1943, 4339, 3532, 7559, 7017, 2776, 2080, 4428, 6458, 5960, 5397, 10816, 9584, 3684, 2730, 6662, 9404, 3823, 4272, 7355, 6097, 2506, 2109, 5053, 6410, 2027, 1630, 2105, 2062, 1373, 1321, 2208, 2657, 2171, 3608, 3171, 1737, 1421, 2278, 2465, 1684, 1725, 4158, 4419, 2332, 1278, 2628, 3524, 2501, 1292, 2218, 2486, 1630, 1208, 1808, 2064, 1666, 1228, 1485, 1675, 1479, 1231, 1175, 1096, 1267, 986, 1174, 1031, 903, 1084, 854, 914, 988, 689, 943, 914, 627, 827, 832, 797, 711, 682, 705, 664, 640, 574, 551, 569, 614, 711, 653, 630, 748, 671, 490, 669, 759, 719, 655, 644, 736, 681, 648, 723, 695, 574, 655, 659, 583, 587, 596, 670, 623, 571, 579, 579, 614, 602, 552, 564, 576, 522, 486, 457, 504, 570, 526, 459, 533, 617, 642, 571, 577, 631, 627, 488, 563, 1140, 1334, 1021, 724, 986, 903, 608, 744, 2123, 3100, 2321, 1084, 1946, 1831, 1071, 774, 3207, 5068, 4422, 1826, 2762, 3258, 1850, 1075, 2863, 4339, 4169, 2181, 2226, 2853, 1865, 1252, 1447, 2237, 2430, 1544, 1172, 1409, 1206, 966, 869, 1367, 1445, 927, 876, 976, 1041, 899, 1412, 1374, 1101, 1349, 1344, 1236, 1175, 1001, 1840, 1540, 1322, 1878, 1661, 1338, 970, 1198, 1376, 1169, 1174, 1458, 1227, 943, 771, 1036, 937, 852, 818, 966, 826, 742, 752, 792, 772, 642, 668, 845, 751, 763, 803, 709, 731, 726, 731, 761, 717, 745, 785, 738, 815, 770, 680, 614, 715, 837, 766, 829, 691, 618, 781, 727, 679, 753, 706, 769, 705, 655, 675, 684, 708, 677, 678, 740, 691, 578, 594, 713, 750, 732, 689, 691, 765, 712, 691, 789, 850, 647, 617, 698, 740, 663, 684, 795, 742, 661, 631, 655, 667, 619, 692, 709, 656, 691, 642, 693, 645, 571, 631, 573, 645, 661, 650, 722, 626, 564, 695, 701, 657, 621, 634, 708, 632, 605, 619, 714, 697, 594, 628, 645, 637, 556, 548, 610, 615, 571, 647, 692, 639, 630, 593, 560, 549, 560, 514, 594, 521, 477, 629, 656, 574, 559, 642, 661, 548, 503, 573, 606, 556, 586, 726, 610, 656, 620, 590, 611, 664, 579, 655, 698, 696, 621, 611, 689, 655, 603, 626, 699, 698, 613, 652, 722, 693, 680, 775, 826, 630, 567, 587, 597, 674, 672, 637, 705, 644, 608, 519, 571, 674, 607, 535, 587, 561, 567, 536, 602, 666, 625, 592, 572, 603, 655, 564, 505, 676, 686, 578, 583, 557, 653, 624, 546, 564, 555, 564, 530, 753, 770, 717, 645, 617, 599, 537, 637, 625, 718, 647, 563, 621, 667, 562, 508, 655, 618, 670, 610, 652, 696, 663, 665, 672, 665, 693, 619, 610, 689, 707, 755, 663, 678, 727, 704, 650, 639, 765, 786, 617, 606, 700, 695, 587, 646, 777, 711, 718, 624, 706, 652, 632, 719, 681, 716, 848, 590, 721, 650, 621, 592, 673, 920, 657, 681, 673, 656, 642, 584, 629, 597, 661, 582, 674, 675, 592, 574, 691, 738, 630, 645, 672, 590, 540, 576, 647, 714, 573, 648, 664, 538, 554, 628, 636, 625, 521, 670, 676, 589, 547, 597, 606, 513, 678, 703, 658, 626, 676, 655, 715, 674, 597, 559, 619, 558, 567, 610, 710, 714, 628, 618, 645, 562, 549, 577, 574, 615, 528, 619, 665, 571, 499, 572, 650, 599, 437, 436, 545, 536, 533, 542, 534, 487, 507, 424, 494, 583, 569, 524, 504, 532, 525, 469, 461, 526, 521, 498, 499, 529, 470, 412, 417, 426, 404, 405, 508, 537, 444, 499, 409, 413, 460, 434, 388, 448, 440, 422, 360, 405, 410, 377, 398, 385, 417, 427, 414, 410, 423, 420, 373, 358, 506, 450, 495, 530, 506, 445, 503, 507]"
0.7091448903083801,-0.2802833318710327,-0.46737003326416016,-0.23307062685489655,-0.1144995242357254,-0.06407332420349121,-0.12072689086198807,-0.15917646884918213,0.6832122802734375,15.5,-0.022562623023986816,0.8153915405273438,15.75,0.3379262685775757,0.9738922119140625,17.75,0.6509221792221069,0.11715888977050781,16.0,0.6755269765853882,0.23932456970214844,22.25,"[444, 564, 568, 505, 536, 505, 566, 569, 470, 561, 572, 639, 623, 561, 593, 569, 426, 497, 666, 699, 665, 621, 586, 537, 454, 552, 668, 588, 413, 511, 545, 441, 507, 516, 557, 546, 497, 518, 532, 496, 497, 576, 546, 550, 594, 580, 515, 472, 547, 565, 523, 489, 611, 621, 516, 537, 506, 438, 488, 481, 508, 514, 487, 523, 484, 464, 498, 420, 454, 478, 452, 440, 627, 553, 604, 555, 563, 645, 549, 656, 631, 505, 555, 586, 587, 601, 551, 617, 596, 591, 625, 597, 575, 561, 623, 620, 495, 520, 651, 618, 510, 494, 550, 568, 631, 524, 636, 681, 546, 472, 592, 678, 540, 519, 508, 634, 606, 493, 522, 545, 510, 528, 511, 540, 600, 590, 573, 514, 509, 403, 477, 618, 582, 473, 465, 530, 579, 521, 520, 763, 772, 483, 570, 672, 538, 565, 650, 635, 569, 484, 598, 587, 458, 542, 704, 681, 513, 592, 671, 570, 507, 498, 551, 598, 579, 535, 531, 518, 581, 556, 462, 572, 630, 479, 446, 544, 525, 495, 537, 543, 627, 535, 495, 520, 509, 508, 597, 569, 515, 580, 601, 559, 500, 532, 601, 539, 535, 561, 619, 581, 500, 527, 538, 573, 594, 627, 621, 542, 510, 470, 530, 650, 598, 594, 616, 561, 539, 604, 552, 576, 548, 551, 622, 578, 541, 522, 592, 629, 580, 503, 590, 642, 508, 587, 658, 644, 594, 548, 600, 531, 615, 600, 603, 569, 535, 592, 599, 601, 627, 614, 602, 441, 551, 585, 624, 647, 553, 630, 592, 505, 505, 510, 573, 534, 473, 574, 633, 654, 598, 523, 538, 513, 642, 567, 490, 622, 675, 616, 518, 536, 614, 515, 528, 644, 569, 606, 635, 645, 524, 522, 526, 618, 544, 483, 575, 590, 571, 599, 572, 523, 490, 505, 593, 641, 480, 569, 506, 470, 557, 498, 542, 539, 509, 586, 556, 570, 551, 594, 522, 430, 530, 539, 548, 582, 616, 580, 553, 564, 576, 479, 499, 598, 623, 638, 630, 594, 527, 552, 619, 656, 545, 685, 702, 576, 613, 640, 646, 626, 483, 613, 660, 597, 595, 610, 570, 625, 535, 458, 502, 534, 568, 522, 477, 575, 561, 531, 507, 520, 629, 567, 615, 650, 609, 604, 572, 616, 929, 733, 680, 745, 760, 695, 596, 763, 1793, 898, 1324, 1552, 1007, 724, 1180, 1995, 2771, 1280, 2174, 2346, 1206, 871, 2029, 3355, 2269, 2548, 3521, 2922, 1432, 1618, 2632, 3368, 4186, 4889, 7726, 6335, 2914, 2653, 5182, 6475, 4375, 4942, 7536, 6022, 3096, 2633, 5337, 6664, 2287, 4055, 5248, 3515, 1772, 2127, 3663, 3970, 1668, 3528, 4460, 2997, 1353, 1854, 2883, 2889, 1352, 3621, 4459, 2762, 1190, 2069, 2627, 2399, 1113, 2813, 3226, 1880, 937, 1792, 1979, 1334, 1379, 2639, 2461, 1197, 907, 1293, 1589, 960, 1333, 2532, 2563, 1512, 771, 1445, 2421, 1851, 818, 2139, 2509, 1524, 688, 1402, 2370, 1962, 644, 1397, 1653, 1083, 631, 978, 1378, 1180, 630, 942, 1138, 921, 628, 678, 843, 887, 811, 805, 917, 953, 738, 759, 843, 841, 701, 822, 783, 741, 569, 811, 904, 779, 557, 633, 708, 586, 597, 737, 766, 673, 571, 567, 557, 567, 566, 615, 678, 634, 584, 605, 627, 652, 580, 553, 616, 665, 638, 837, 891, 697, 713, 672, 727, 704, 786, 1109, 1111, 641, 684, 721, 623, 538, 1277, 1822, 1652, 1095, 1184, 1173, 845, 768, 2717, 3500, 2707, 1655, 2271, 2167, 1438, 1418, 2860, 3572, 2468, 1644, 2185, 2338, 1718, 1472, 1524, 1828, 1754, 1304, 1278, 1436, 1110, 924, 1044, 1589, 1698, 1143, 972, 1193, 1041, 884, 1302, 1772, 1648, 1028, 1078, 942, 832, 883, 1127, 1570, 1388, 920, 831, 756, 703, 672, 669, 1019, 1205, 967, 607, 660, 751, 662, 649, 1006, 1162, 820, 727, 729, 675, 723, 686, 929, 1025, 741, 719, 854, 831, 806, 714, 792, 859, 813, 739, 743, 801, 847, 656, 748, 779, 730, 565, 640, 716, 718, 609, 716, 786, 652, 571, 630, 630, 638, 748, 779, 756, 699, 683, 684, 649, 659, 799, 748, 619, 600, 718, 758, 679, 669, 697, 669, 621, 596, 698, 739, 618, 628, 649, 656, 625, 628, 717, 722, 740, 685, 651, 619, 663, 697, 611, 759, 797, 661, 706, 742, 781, 667, 689, 803, 799, 722, 661, 716, 730, 657, 575, 646, 579, 583, 589, 664, 666, 689, 581, 615, 648, 487, 513, 613, 602, 623, 619, 639, 603, 503, 600, 604, 588, 617, 565, 594, 617, 558, 714, 633, 564, 597, 510, 581, 586, 612, 654, 618, 656, 563, 533, 624, 642, 673, 659, 614, 686, 693, 574, 591, 648, 703, 568, 570, 637, 726, 580, 549, 628, 637, 515, 566, 637, 613, 538, 566, 601, 594, 522, 598, 650, 570, 474, 608, 678, 573, 571, 695, 615, 510, 538, 575, 597, 543, 621, 729, 770, 667, 623, 652, 710, 646, 669, 722, 735, 594, 505, 564, 629, 614, 676, 609, 617, 569, 554, 517, 517, 616, 563, 615, 638, 648, 646, 610, 659, 633, 585, 684, 685, 623, 597, 617, 703, 679, 625, 629, 589, 618, 590, 598, 629, 654, 658, 639, 701, 614, 555, 669, 642, 687, 676, 562, 571, 574, 631, 704, 590, 648, 611, 425, 528, 642, 695, 651, 540, 598, 677, 563, 687, 719, 675, 638, 608, 791, 883, 685, 922, 952, 856, 667, 1023, 1270, 890, 774, 1015, 821, 720, 687, 1145, 1345, 744, 717, 811, 725, 617, 756, 743, 816, 650, 666, 560, 569, 616, 665, 605, 633, 655, 840, 665, 444, 582, 746, 711, 555, 590, 685, 744, 606, 574, 628, 716, 719, 521, 537, 663, 594, 501, 553, 655, 615, 492, 479, 613, 602, 429, 590, 658, 616, 599, 639, 762, 625, 570, 731, 671, 714, 587, 663, 695, 544, 575, 604, 665, 669, 452, 582, 644, 649, 630, 662, 741, 627, 417, 593, 630, 557, 524, 586, 623, 485, 539, 533, 569, 501, 572, 488, 521, 612, 500, 540, 497, 512, 467, 437, 503, 528, 407, 457, 445, 468, 468, 473, 450, 420, 418, 355, 403, 464, 419, 393, 382, 426, 436, 463, 492, 477, 490, 476, 449, 429, 473, 379, 368, 417, 449, 392, 354, 412, 450, 464, 418, 428, 485, 404, 444, 445]"
0.8369320631027222,-0.011437684297561646,-1.0218689441680908,0.06656430661678314,0.21618284285068512,-0.6294735670089722,0.20134881138801575,-0.6747329831123352,1.2295246124267578,18.75,0.842324435710907,-0.478363037109375,19.5,0.9417449831962585,-0.11730194091796875,23.75,0.9418880343437195,0.2869606018066406,21.0,0.9607707858085632,0.0,25.5,"[481, 575, 651, 582, 572, 582, 655, 578, 448, 576, 616, 578, 621, 726, 664, 529, 523, 567, 602, 578, 517, 646, 631, 499, 524, 493, 518, 576, 494, 454, 524, 511, 469, 411, 482, 495, 461, 475, 452, 503, 535, 506, 565, 564, 496, 558, 531, 514, 463, 469, 545, 528, 508, 573, 527, 489, 468, 521, 498, 437, 479, 499, 504, 501, 546, 518, 475, 435, 505, 463, 490, 545, 512, 531, 524, 515, 524, 541, 558, 521, 604, 568, 582, 626, 553, 541, 586, 523, 567, 474, 471, 597, 606, 563, 519, 520, 544, 511, 445, 564, 561, 538, 485, 490, 634, 529, 551, 698, 600, 492, 637, 682, 714, 576, 600, 722, 673, 528, 640, 741, 763, 693, 574, 646, 756, 686, 550, 660, 588, 665, 576, 552, 626, 677, 669, 601, 604, 714, 638, 596, 605, 641, 742, 671, 504, 609, 596, 542, 528, 534, 654, 612, 468, 554, 581, 607, 535, 495, 671, 610, 513, 584, 603, 519, 489, 493, 568, 547, 603, 671, 569, 496, 560, 543, 506, 506, 632, 588, 535, 532, 532, 517, 502, 595, 585, 493, 465, 528, 532, 467, 514, 606, 515, 473, 502, 562, 583, 455, 461, 565, 573, 501, 494, 582, 555, 476, 575, 603, 587, 567, 556, 617, 685, 633, 583, 583, 592, 604, 607, 657, 552, 613, 662, 540, 638, 623, 590, 627, 610, 622, 585, 529, 580, 555, 605, 683, 658, 574, 602, 569, 461, 530, 577, 566, 511, 617, 629, 544, 500, 600, 524, 479, 525, 631, 640, 551, 545, 600, 501, 416, 454, 558, 614, 502, 612, 637, 546, 558, 531, 540, 574, 584, 603, 552, 600, 620, 523, 556, 618, 637, 546, 500, 539, 519, 518, 564, 625, 618, 551, 606, 562, 563, 535, 530, 613, 590, 525, 540, 497, 521, 529, 532, 579, 582, 709, 588, 475, 569, 567, 515, 537, 656, 557, 640, 589, 514, 528, 549, 486, 500, 491, 519, 518, 513, 462, 534, 551, 495, 617, 597, 612, 577, 595, 621, 562, 564, 648, 570, 529, 605, 627, 590, 572, 585, 619, 622, 583, 587, 670, 725, 623, 533, 463, 534, 646, 592, 539, 562, 581, 554, 631, 578, 604, 550, 617, 616, 646, 689, 948, 820, 820, 759, 670, 739, 846, 975, 2671, 1520, 1737, 1954, 1308, 900, 1418, 2659, 4418, 1774, 3013, 3630, 2002, 1075, 2543, 4873, 3980, 3496, 6322, 5596, 2144, 2272, 3616, 5402, 3759, 5787, 10606, 8438, 2213, 3427, 6350, 7880, 3439, 6003, 9418, 6705, 2082, 3159, 5423, 6253, 2899, 6004, 7182, 4948, 1959, 3043, 3597, 4165, 1927, 5420, 6276, 3396, 1567, 2808, 2865, 2471, 2290, 5445, 5558, 2555, 1672, 2800, 2780, 1863, 2645, 4144, 3871, 1913, 1660, 2157, 2285, 1895, 2320, 2607, 2741, 2199, 1217, 1364, 2340, 2416, 2089, 3183, 2932, 1914, 1006, 1962, 2674, 2205, 1643, 2901, 2733, 1592, 843, 1907, 2678, 1992, 982, 1413, 1413, 989, 751, 1064, 1308, 1145, 735, 1061, 1153, 825, 734, 804, 934, 904, 545, 832, 862, 615, 579, 639, 780, 706, 697, 781, 756, 705, 746, 741, 715, 661, 643, 683, 695, 644, 664, 717, 672, 641, 648, 594, 657, 659, 594, 598, 581, 613, 797, 858, 831, 754, 743, 708, 617, 705, 971, 1701, 1595, 937, 998, 1203, 964, 742, 1254, 2533, 2438, 1071, 1218, 1696, 1239, 840, 1391, 2530, 2355, 1125, 1317, 1600, 1230, 976, 1504, 2498, 2240, 996, 1673, 1773, 1102, 956, 1524, 2830, 2683, 1388, 1789, 1909, 1245, 972, 1560, 2410, 2166, 1363, 1446, 1381, 997, 998, 1286, 1622, 1487, 1034, 1120, 1128, 807, 888, 1198, 1284, 1252, 1259, 951, 1108, 1018, 828, 1761, 1705, 1535, 1753, 1267, 1416, 1493, 876, 1701, 1684, 1770, 1911, 1220, 1626, 1744, 1008, 1160, 1082, 1282, 1370, 950, 1127, 1093, 821, 680, 722, 842, 762, 643, 720, 782, 686, 669, 750, 676, 690, 763, 676, 598, 639, 682, 589, 592, 672, 721, 607, 606, 574, 723, 538, 547, 625, 616, 626, 568, 568, 708, 668, 677, 651, 575, 698, 725, 645, 647, 721, 775, 760, 681, 661, 719, 671, 693, 687, 713, 737, 738, 622, 579, 639, 630, 591, 629, 690, 732, 629, 524, 573, 599, 581, 605, 675, 568, 579, 621, 621, 684, 739, 789, 698, 605, 692, 744, 679, 541, 698, 769, 682, 632, 696, 643, 573, 491, 626, 644, 517, 534, 565, 543, 506, 585, 668, 555, 501, 575, 606, 578, 546, 630, 644, 587, 540, 623, 561, 574, 641, 598, 589, 620, 672, 736, 642, 507, 538, 570, 615, 566, 514, 676, 610, 484, 514, 586, 725, 657, 598, 596, 629, 516, 490, 635, 575, 562, 610, 600, 598, 563, 652, 566, 549, 483, 574, 629, 549, 493, 513, 581, 453, 474, 631, 594, 606, 581, 533, 535, 494, 599, 638, 597, 523, 536, 609, 595, 566, 566, 689, 621, 569, 565, 617, 645, 744, 683, 578, 583, 576, 623, 646, 637, 718, 697, 554, 612, 673, 621, 692, 598, 575, 704, 680, 548, 614, 563, 597, 635, 552, 605, 668, 544, 599, 581, 605, 561, 585, 599, 545, 546, 617, 610, 579, 563, 647, 629, 571, 639, 652, 638, 619, 543, 578, 637, 636, 634, 581, 638, 662, 553, 630, 652, 670, 622, 548, 627, 611, 705, 595, 834, 768, 643, 593, 786, 909, 788, 604, 969, 953, 659, 608, 873, 1057, 775, 752, 1071, 947, 648, 605, 923, 1074, 895, 889, 1082, 943, 714, 751, 877, 982, 756, 918, 1109, 893, 585, 907, 1129, 1008, 533, 682, 734, 591, 523, 731, 869, 723, 750, 866, 837, 803, 749, 697, 788, 745, 734, 914, 1062, 911, 667, 698, 919, 992, 675, 805, 906, 733, 621, 702, 947, 911, 529, 749, 748, 569, 506, 651, 855, 694, 499, 718, 713, 715, 586, 615, 787, 678, 586, 731, 680, 558, 539, 633, 616, 567, 562, 580, 581, 463, 528, 591, 601, 588, 464, 578, 613, 568, 559, 557, 504, 491, 501, 518, 521, 551, 553, 483, 509, 515, 435, 396, 454, 523, 503, 397, 455, 471, 445, 426, 513, 532, 466, 485, 478, 514, 500, 389, 441, 443, 425, 489, 424, 481, 470, 421, 469, 517, 499, 457, 410, 433, 428, 413, 470, 451, 409, 454, 434, 452, 416, 454, 504, 484, 478, 454, 408, 407]"
0.9986446499824524,-0.0778517872095108,-1.372037410736084,0.33082115650177,0.04529586434364319,-0.8339056968688965,0.3506513833999634,-0.33012187480926514,1.2830257415771484,17.25,0.5088731050491333,0.7915019989013672,17.75,0.873367428779602,0.8809089660644531,21.5,0.9576245546340942,0.7555961608886719,17.75,1.0709210634231567,0.43659210205078125,22.0,"[673, 602, 667, 655, 618, 654, 669, 602, 588, 578, 659, 648, 643, 670, 652, 612, 566, 629, 599, 529, 591, 657, 613, 526, 478, 567, 573, 413, 459, 485, 471, 516, 419, 525, 550, 434, 424, 513, 509, 451, 500, 507, 446, 471, 535, 565, 500, 477, 507, 542, 479, 571, 530, 529, 581, 507, 532, 562, 563, 552, 490, 573, 549, 400, 527, 595, 499, 476, 505, 486, 481, 408, 618, 628, 548, 576, 671, 594, 517, 548, 606, 551, 520, 604, 651, 571, 512, 529, 583, 585, 558, 563, 611, 604, 530, 534, 524, 542, 550, 571, 545, 530, 509, 506, 501, 494, 516, 534, 534, 533, 543, 508, 560, 551, 466, 533, 579, 567, 575, 546, 620, 615, 501, 576, 654, 692, 620, 534, 563, 602, 534, 489, 492, 501, 511, 533, 450, 510, 490, 395, 474, 419, 508, 547, 581, 636, 595, 513, 543, 534, 561, 585, 568, 554, 576, 530, 538, 623, 537, 592, 607, 577, 584, 549, 628, 620, 539, 572, 539, 521, 516, 563, 603, 521, 526, 585, 636, 602, 540, 597, 612, 559, 508, 585, 556, 594, 631, 606, 491, 539, 587, 514, 524, 568, 649, 597, 488, 619, 598, 495, 545, 528, 667, 608, 542, 569, 557, 584, 532, 574, 634, 586, 565, 567, 585, 584, 580, 596, 561, 488, 551, 614, 601, 520, 532, 600, 557, 395, 470, 538, 546, 572, 626, 569, 529, 548, 633, 561, 508, 585, 599, 593, 576, 573, 543, 474, 516, 549, 609, 620, 609, 514, 536, 590, 589, 607, 577, 589, 512, 537, 530, 565, 542, 460, 564, 553, 412, 450, 509, 559, 511, 456, 590, 572, 528, 558, 584, 561, 637, 668, 569, 520, 566, 569, 543, 461, 559, 610, 558, 526, 570, 548, 520, 530, 596, 618, 534, 535, 652, 581, 508, 591, 618, 593, 538, 623, 646, 473, 511, 603, 567, 557, 625, 571, 648, 567, 624, 652, 642, 746, 551, 517, 502, 426, 584, 586, 459, 563, 593, 579, 642, 516, 606, 653, 521, 582, 478, 569, 571, 515, 599, 674, 567, 521, 560, 563, 562, 517, 576, 599, 582, 570, 736, 719, 688, 643, 582, 626, 696, 794, 1984, 1402, 1907, 1697, 1239, 1091, 1963, 2538, 3299, 3142, 4565, 3476, 2149, 1959, 3909, 4499, 2593, 5785, 7632, 4889, 1992, 2656, 3964, 4296, 2454, 5108, 7151, 4577, 1593, 2160, 3870, 4359, 3336, 2116, 3932, 3738, 1809, 1176, 3148, 4699, 2223, 1914, 3575, 2970, 1216, 1202, 2894, 3844, 1047, 1844, 2204, 1473, 927, 1172, 1716, 1877, 1086, 1300, 1144, 832, 894, 915, 815, 772, 1230, 2286, 2175, 1118, 970, 1327, 1646, 1095, 1170, 2234, 2156, 1189, 986, 1370, 1823, 1273, 1244, 2447, 2330, 1089, 1002, 1511, 1875, 1166, 1001, 1728, 1539, 793, 705, 1117, 1405, 958, 787, 1134, 1140, 781, 561, 914, 1082, 816, 779, 1415, 1346, 869, 900, 1049, 1151, 843, 1302, 1705, 1255, 1213, 1531, 1290, 1569, 1204, 1432, 1435, 1114, 1282, 1395, 1366, 1595, 1277, 921, 1402, 1340, 860, 980, 1269, 1274, 860, 1369, 2636, 2239, 875, 1370, 1526, 1489, 943, 1424, 2376, 1935, 714, 1247, 1388, 1233, 742, 987, 1270, 1000, 604, 870, 799, 745, 574, 743, 988, 766, 547, 737, 698, 608, 473, 1056, 1306, 1006, 711, 860, 986, 769, 588, 1885, 2363, 1878, 1183, 1475, 1530, 1131, 842, 2131, 2614, 2199, 1548, 1745, 1606, 1077, 958, 1332, 1359, 1326, 1300, 1162, 1029, 827, 859, 805, 1034, 1193, 1038, 845, 984, 700, 724, 933, 1099, 1031, 763, 860, 867, 622, 651, 1011, 944, 895, 1009, 890, 859, 775, 651, 1139, 794, 1288, 1673, 1158, 992, 1037, 817, 892, 725, 1044, 1323, 988, 864, 911, 793, 773, 714, 702, 708, 698, 642, 562, 699, 772, 740, 661, 714, 752, 667, 553, 764, 729, 786, 795, 664, 561, 540, 656, 761, 605, 705, 692, 604, 525, 661, 741, 587, 701, 660, 579, 720, 740, 718, 663, 616, 609, 653, 616, 691, 719, 661, 631, 613, 591, 624, 636, 577, 584, 583, 534, 549, 642, 620, 620, 605, 645, 650, 644, 692, 621, 574, 598, 536, 584, 683, 724, 690, 587, 677, 644, 610, 761, 782, 625, 560, 755, 727, 560, 622, 740, 646, 643, 676, 669, 625, 608, 595, 575, 552, 698, 697, 680, 638, 688, 641, 626, 598, 675, 667, 605, 608, 664, 633, 590, 569, 651, 652, 587, 618, 683, 675, 615, 610, 670, 685, 620, 652, 727, 642, 739, 696, 647, 682, 734, 711, 781, 716, 661, 562, 612, 792, 694, 554, 688, 672, 595, 540, 668, 891, 626, 520, 596, 538, 595, 562, 616, 778, 560, 610, 615, 549, 627, 606, 598, 679, 664, 712, 619, 601, 650, 601, 633, 668, 519, 563, 600, 565, 563, 565, 664, 620, 577, 599, 562, 638, 638, 622, 693, 616, 581, 660, 631, 653, 578, 616, 684, 563, 787, 760, 654, 761, 665, 590, 678, 696, 727, 755, 709, 727, 635, 587, 627, 621, 689, 770, 730, 734, 673, 579, 609, 606, 637, 687, 654, 695, 678, 609, 609, 526, 581, 547, 574, 603, 554, 554, 617, 635, 732, 596, 591, 697, 644, 519, 595, 675, 769, 668, 778, 844, 668, 579, 830, 913, 831, 602, 911, 936, 676, 578, 1048, 1201, 1141, 762, 1247, 1087, 819, 622, 1456, 1811, 1413, 1053, 1934, 1499, 1036, 767, 2227, 2719, 1124, 1087, 1763, 1230, 949, 755, 2102, 2441, 645, 889, 936, 794, 653, 709, 1237, 1144, 972, 655, 829, 1055, 822, 546, 691, 969, 952, 627, 886, 1015, 763, 530, 991, 1254, 882, 883, 1092, 1176, 830, 903, 1629, 1532, 853, 852, 1060, 921, 772, 878, 1594, 1544, 691, 793, 932, 723, 656, 725, 1251, 1272, 570, 791, 869, 594, 572, 650, 932, 888, 602, 698, 756, 596, 677, 696, 673, 670, 545, 648, 733, 603, 590, 655, 731, 671, 638, 668, 613, 579, 593, 625, 557, 592, 509, 535, 506, 451, 437, 530, 473, 465, 577, 519, 587, 553, 498, 579, 560, 557, 507, 447, 586, 488, 393, 456, 475, 531, 504, 503, 556, 518, 430, 462, 494, 511, 505, 516, 530, 514, 448, 515, 472, 424, 435, 530, 522, 497, 464, 487, 425, 404, 390, 483, 494, 430, 405, 422, 467, 368, 446, 435, 474, 485, 397, 369, 408, 460]"
1.044319987297058,-0.20450076460838318,-1.3473764657974243,0.36941561102867126,-0.1182371973991394,-0.7213366031646729,0.3279513120651245,0.2048613280057907,1.0564327239990234,22.5,0.9650351256132126,0.10929107666015625,22.5,1.170170471072197,0.18296241760253906,16.0,1.2424113005399704,0.10700225830078125,28.0,1.2497069090604782,0.10786056518554688,27.25,"[679, 701, 702, 688, 714, 686, 704, 701, 674, 666, 667, 592, 685, 692, 665, 709, 519, 701, 692, 584, 559, 634, 659, 540, 598, 550, 513, 541, 604, 629, 595, 616, 535, 473, 473, 488, 509, 572, 506, 555, 554, 501, 512, 497, 553, 656, 631, 599, 502, 565, 547, 430, 509, 597, 537, 492, 541, 493, 509, 417, 468, 602, 517, 470, 585, 506, 513, 445, 456, 544, 521, 539, 551, 487, 518, 467, 479, 488, 539, 602, 549, 592, 491, 475, 422, 523, 598, 547, 519, 555, 524, 563, 508, 543, 632, 508, 529, 522, 556, 503, 482, 502, 545, 567, 503, 616, 546, 479, 464, 539, 637, 546, 496, 580, 587, 577, 561, 593, 561, 485, 552, 479, 557, 591, 649, 650, 526, 513, 568, 482, 494, 498, 526, 576, 555, 516, 525, 554, 574, 549, 582, 561, 539, 527, 601, 647, 556, 539, 604, 561, 477, 492, 638, 584, 547, 538, 528, 513, 500, 590, 559, 563, 535, 502, 532, 500, 439, 485, 608, 542, 525, 515, 582, 615, 476, 509, 597, 561, 601, 529, 494, 590, 559, 550, 522, 449, 564, 631, 512, 506, 557, 583, 559, 471, 515, 586, 536, 523, 558, 640, 638, 530, 509, 573, 647, 577, 542, 645, 464, 545, 508, 457, 597, 648, 566, 487, 450, 609, 679, 542, 526, 608, 686, 604, 457, 503, 628, 607, 442, 504, 554, 585, 556, 594, 586, 527, 524, 604, 545, 516, 567, 562, 549, 600, 548, 543, 462, 459, 601, 605, 498, 495, 593, 629, 542, 540, 624, 646, 499, 581, 589, 559, 591, 512, 579, 533, 521, 630, 544, 471, 604, 605, 509, 547, 524, 515, 533, 511, 559, 518, 478, 557, 521, 618, 662, 576, 564, 508, 458, 566, 574, 622, 563, 451, 554, 439, 578, 643, 620, 653, 686, 608, 539, 478, 598, 567, 522, 547, 615, 540, 533, 542, 527, 555, 513, 591, 685, 585, 525, 512, 591, 564, 550, 535, 596, 590, 545, 572, 604, 606, 571, 581, 538, 639, 626, 544, 497, 608, 648, 535, 529, 589, 592, 535, 661, 661, 693, 717, 639, 537, 669, 635, 1795, 945, 1964, 1895, 981, 738, 1816, 2568, 3791, 3654, 7258, 5640, 1480, 1960, 4927, 6897, 5646, 8113, 13601, 9817, 2448, 3755, 8167, 11025, 6224, 8205, 13169, 9473, 2843, 3598, 8720, 11346, 4350, 4794, 7246, 5145, 1992, 2330, 5666, 7014, 2104, 4848, 5249, 2815, 1497, 2520, 3363, 2914, 1424, 2714, 2953, 1809, 1161, 1641, 1670, 1544, 1636, 2362, 1961, 1061, 1155, 1611, 1715, 1143, 2296, 4879, 4429, 1756, 1469, 2610, 3475, 1931, 2423, 4971, 4394, 1564, 1608, 2870, 3670, 1936, 1770, 3307, 2832, 1044, 1286, 1954, 2129, 1061, 904, 1288, 1168, 798, 785, 978, 1028, 750, 787, 1075, 1105, 818, 748, 865, 816, 683, 676, 904, 865, 644, 703, 812, 763, 703, 670, 884, 839, 779, 714, 780, 810, 697, 732, 878, 749, 715, 758, 740, 791, 688, 767, 880, 781, 636, 685, 777, 709, 536, 733, 752, 743, 744, 682, 712, 661, 595, 682, 723, 668, 636, 614, 669, 694, 633, 643, 692, 722, 722, 580, 635, 686, 668, 579, 683, 669, 623, 597, 567, 620, 643, 757, 831, 837, 789, 701, 793, 850, 760, 1019, 1280, 1404, 999, 923, 1264, 1072, 812, 1103, 1637, 1706, 1073, 999, 1266, 1009, 800, 1394, 1845, 1494, 1138, 1245, 1180, 813, 898, 1648, 1861, 1339, 1073, 1244, 1050, 774, 1045, 1316, 1583, 1359, 961, 1036, 975, 729, 893, 1089, 1269, 994, 809, 906, 926, 818, 796, 1533, 1511, 1238, 1309, 1191, 1329, 1120, 989, 1410, 1229, 1254, 1526, 1139, 1152, 1041, 949, 1071, 924, 1002, 1160, 958, 862, 909, 822, 679, 834, 969, 898, 766, 621, 741, 807, 642, 860, 879, 733, 758, 681, 728, 689, 686, 786, 726, 574, 634, 618, 623, 617, 633, 608, 564, 600, 637, 605, 606, 620, 605, 755, 640, 499, 570, 693, 736, 603, 644, 666, 657, 616, 638, 630, 613, 661, 695, 707, 582, 662, 792, 719, 533, 621, 759, 748, 555, 642, 711, 752, 677, 665, 595, 662, 598, 576, 577, 666, 748, 616, 642, 666, 654, 591, 653, 699, 694, 669, 549, 552, 613, 534, 647, 662, 611, 609, 591, 645, 583, 604, 696, 756, 649, 555, 679, 625, 612, 681, 712, 720, 630, 596, 641, 586, 665, 729, 624, 629, 683, 699, 658, 637, 687, 634, 562, 595, 721, 799, 766, 573, 535, 643, 616, 575, 712, 817, 854, 660, 660, 617, 735, 676, 832, 925, 844, 516, 660, 651, 714, 623, 812, 994, 750, 588, 591, 607, 640, 641, 695, 752, 671, 736, 574, 614, 697, 527, 554, 613, 703, 746, 723, 651, 692, 599, 632, 696, 715, 695, 688, 644, 587, 659, 571, 635, 699, 610, 562, 618, 668, 630, 566, 685, 648, 653, 623, 647, 709, 657, 665, 739, 582, 669, 587, 554, 645, 601, 659, 650, 596, 579, 591, 706, 626, 517, 554, 538, 576, 580, 644, 665, 613, 541, 599, 597, 639, 623, 657, 683, 620, 675, 600, 584, 537, 734, 752, 646, 638, 745, 699, 566, 550, 726, 840, 738, 599, 740, 920, 786, 988, 781, 1116, 1041, 835, 757, 1393, 1607, 1510, 782, 1632, 1518, 1230, 731, 2100, 2608, 1655, 927, 1873, 1703, 1277, 915, 2549, 2990, 1543, 917, 1884, 1698, 1165, 952, 2525, 2911, 1424, 1045, 2050, 1600, 932, 920, 2379, 2796, 1397, 1272, 2403, 1848, 823, 1075, 2433, 2826, 1173, 923, 1734, 1474, 739, 824, 1599, 1940, 625, 547, 797, 831, 582, 549, 727, 778, 663, 701, 640, 647, 651, 628, 739, 778, 691, 712, 707, 635, 713, 815, 713, 712, 717, 990, 1509, 1100, 716, 785, 1286, 1421, 518, 1015, 1311, 901, 633, 676, 1277, 1259, 659, 605, 639, 614, 556, 450, 513, 635, 715, 722, 610, 495, 534, 554, 597, 653, 672, 470, 475, 551, 539, 458, 601, 751, 633, 441, 577, 628, 481, 434, 542, 697, 484, 559, 703, 661, 468, 468, 638, 650, 513, 626, 650, 633, 554, 552, 669, 619, 532, 580, 578, 561, 535, 531, 509, 526, 464, 407, 415, 457, 422, 411, 411, 422, 405, 432, 432, 370, 401, 441, 460, 442, 449, 518, 492, 445, 414, 385, 468, 453, 375, 402, 443, 453, 403, 411, 411, 353]"
0.999678373336792,-0.241383358836174,-0.9816018342971802,0.26267316937446594,-0.12507598102092743,-0.25347697734832764,0.2111239731311798,0.27622705698013306,0.8714675903320312,20.75,0.45818811655044556,0.8276939392089844,19.5,0.690646231174469,0.0,18.0,1.0206652283668518,0.1132965087890625,18.0,1.093478262424469,0.11501312255859375,15.0,"[604, 561, 558, 605, 588, 605, 559, 560, 497, 597, 605, 636, 632, 649, 650, 497, 472, 596, 659, 612, 554, 615, 588, 495, 421, 525, 643, 593, 458, 507, 609, 527, 518, 493, 415, 476, 486, 428, 463, 502, 558, 496, 525, 562, 573, 563, 536, 496, 462, 444, 529, 545, 532, 468, 460, 498, 551, 598, 523, 517, 640, 606, 476, 459, 538, 629, 531, 464, 563, 559, 526, 569, 519, 557, 482, 446, 630, 520, 487, 580, 566, 534, 587, 537, 560, 512, 466, 582, 486, 536, 582, 486, 469, 511, 482, 501, 537, 544, 503, 498, 487, 441, 438, 459, 489, 633, 535, 453, 515, 546, 553, 487, 471, 522, 508, 495, 527, 556, 540, 493, 568, 538, 599, 580, 549, 645, 633, 594, 584, 515, 531, 544, 518, 545, 527, 547, 544, 483, 563, 568, 526, 499, 592, 627, 540, 519, 559, 602, 579, 585, 651, 564, 618, 639, 608, 532, 562, 580, 610, 613, 544, 601, 605, 533, 523, 513, 608, 597, 635, 625, 539, 546, 644, 627, 615, 599, 556, 658, 551, 486, 485, 577, 628, 559, 583, 613, 518, 603, 581, 527, 580, 543, 516, 516, 596, 622, 564, 520, 588, 531, 498, 520, 568, 558, 521, 530, 537, 503, 547, 624, 628, 545, 502, 527, 622, 490, 556, 526, 576, 571, 504, 635, 605, 493, 487, 421, 484, 574, 491, 522, 557, 503, 536, 488, 478, 495, 499, 550, 581, 565, 627, 605, 563, 550, 708, 811, 674, 590, 640, 621, 551, 566, 568, 612, 636, 547, 630, 581, 603, 622, 524, 540, 602, 614, 683, 537, 594, 518, 577, 643, 582, 656, 552, 534, 581, 487, 581, 589, 684, 722, 583, 578, 552, 539, 587, 545, 532, 576, 579, 579, 551, 519, 480, 523, 564, 571, 654, 586, 621, 622, 653, 695, 667, 650, 532, 481, 638, 653, 573, 564, 628, 628, 562, 540, 598, 614, 571, 611, 587, 548, 506, 562, 585, 596, 529, 585, 575, 520, 525, 574, 600, 571, 549, 567, 558, 475, 573, 579, 576, 549, 545, 657, 674, 624, 1880, 854, 1657, 1478, 1012, 793, 1729, 2526, 4640, 1616, 4407, 3731, 2106, 1144, 4519, 6775, 3089, 3106, 5572, 3939, 2023, 2066, 4242, 5726, 3156, 4232, 5379, 3553, 3210, 3356, 3763, 4587, 3448, 4132, 4218, 2405, 2416, 3063, 2995, 3458, 4410, 4704, 3816, 1657, 2174, 2849, 3410, 3470, 3772, 5816, 5512, 2394, 2071, 2925, 4097, 3439, 1991, 5116, 5136, 2235, 1642, 2467, 3486, 2540, 1642, 3823, 3577, 1573, 1411, 1898, 2627, 1788, 1296, 2145, 2054, 1267, 1068, 1386, 1931, 1505, 876, 1091, 1286, 1072, 804, 912, 1274, 1226, 853, 1460, 1525, 853, 838, 1176, 1227, 967, 1097, 1777, 1618, 781, 974, 1335, 1531, 1213, 855, 1238, 1262, 697, 737, 1035, 1252, 1136, 659, 844, 876, 720, 703, 761, 842, 814, 609, 661, 722, 727, 624, 597, 599, 624, 653, 768, 793, 675, 596, 547, 574, 610, 595, 636, 687, 707, 621, 588, 627, 601, 633, 602, 605, 652, 581, 579, 696, 681, 659, 664, 697, 709, 619, 677, 721, 641, 632, 823, 773, 660, 727, 798, 654, 492, 948, 1493, 1391, 854, 1157, 1292, 758, 623, 1814, 2699, 2307, 1322, 1938, 1952, 1008, 1016, 2722, 3425, 2921, 1790, 2076, 2398, 1358, 1457, 2786, 3011, 2568, 1673, 1712, 2136, 1407, 1676, 1747, 1725, 1347, 1010, 1218, 1324, 965, 1196, 1111, 1273, 1060, 915, 975, 833, 847, 931, 827, 821, 1007, 957, 848, 707, 757, 826, 1014, 939, 832, 799, 709, 956, 816, 733, 1350, 1243, 788, 878, 858, 1210, 1036, 767, 1146, 1231, 817, 608, 773, 971, 800, 683, 823, 910, 707, 564, 696, 667, 637, 647, 718, 757, 616, 539, 702, 692, 584, 611, 615, 653, 686, 658, 645, 675, 764, 700, 645, 718, 675, 575, 551, 658, 808, 735, 660, 597, 672, 773, 662, 672, 769, 744, 683, 698, 751, 727, 664, 664, 758, 650, 625, 681, 636, 655, 664, 680, 687, 618, 704, 680, 673, 710, 687, 683, 653, 630, 707, 649, 678, 771, 756, 696, 634, 681, 613, 612, 638, 588, 644, 707, 661, 671, 551, 548, 583, 584, 702, 681, 595, 586, 619, 669, 559, 521, 715, 674, 556, 566, 694, 759, 668, 614, 690, 624, 599, 603, 612, 641, 594, 561, 573, 472, 452, 511, 563, 556, 587, 570, 557, 505, 533, 565, 627, 625, 641, 557, 588, 708, 653, 592, 727, 622, 750, 799, 659, 666, 809, 826, 957, 771, 872, 1005, 879, 628, 1121, 1340, 842, 625, 798, 869, 793, 573, 1044, 1234, 667, 583, 598, 671, 608, 603, 795, 786, 716, 714, 619, 543, 551, 665, 625, 595, 779, 702, 648, 600, 618, 636, 504, 682, 617, 665, 664, 619, 538, 566, 592, 646, 656, 697, 696, 653, 676, 650, 629, 589, 605, 739, 733, 660, 628, 656, 702, 613, 603, 760, 713, 631, 606, 673, 763, 644, 726, 710, 729, 667, 567, 586, 725, 720, 677, 704, 578, 571, 549, 596, 721, 719, 621, 809, 684, 558, 540, 649, 742, 690, 675, 747, 674, 604, 622, 696, 609, 631, 626, 668, 674, 614, 614, 618, 563, 578, 837, 703, 767, 856, 799, 637, 1140, 1210, 1045, 814, 919, 955, 947, 853, 1483, 1567, 785, 661, 713, 834, 771, 752, 1172, 1174, 974, 584, 797, 704, 656, 542, 988, 1328, 1860, 716, 1714, 1372, 1097, 678, 2140, 2944, 1954, 863, 2182, 1886, 1195, 781, 2487, 3275, 1288, 954, 1479, 1379, 821, 1089, 1638, 1865, 905, 1059, 929, 793, 764, 1132, 1166, 765, 765, 989, 905, 690, 679, 989, 1134, 913, 686, 787, 768, 590, 652, 852, 988, 912, 668, 829, 947, 728, 669, 771, 1161, 1144, 669, 646, 907, 732, 616, 539, 919, 1100, 712, 609, 1068, 942, 658, 651, 1171, 1323, 572, 576, 693, 568, 499, 538, 735, 784, 618, 671, 601, 500, 575, 581, 649, 673, 526, 595, 526, 467, 477, 504, 682, 646, 518, 596, 548, 506, 493, 525, 577, 583, 576, 501, 518, 477, 499, 524, 525, 567, 464, 424, 468, 481, 453, 486, 478, 484, 411, 451, 487, 441, 478, 464, 497, 488, 430, 500, 460, 452, 439, 418, 421, 455, 367, 322, 404, 468, 501, 488, 525, 487, 355, 410, 437, 427, 430, 452, 513, 477]"
0.9500436782836914,-0.3345683813095093,-0.18641400337219238,0.127164825797081,-0.18152499198913574,0.6768479347229004,0.05941420793533325,-0.5206191539764404,1.313638687133789,18.0,0.03856778144836426,1.1771678924560547,23.0,0.2627289295196533,1.0359764099121094,22.75,0.6006157398223877,0.5251407623291016,19.5,0.7433807849884033,-0.4230022430419922,19.5,"[486, 502, 577, 553, 506, 558, 579, 503, 596, 555, 567, 646, 621, 602, 618, 603, 659, 547, 558, 599, 640, 674, 585, 572, 455, 482, 518, 474, 498, 569, 525, 511, 469, 449, 469, 426, 501, 534, 455, 434, 463, 484, 460, 459, 533, 558, 508, 486, 482, 563, 515, 453, 490, 477, 578, 562, 522, 562, 548, 534, 512, 516, 559, 574, 614, 571, 627, 619, 556, 507, 588, 678, 549, 500, 514, 525, 557, 499, 518, 583, 500, 462, 448, 488, 470, 513, 518, 475, 518, 527, 560, 529, 487, 516, 556, 558, 496, 491, 561, 535, 525, 502, 504, 538, 567, 536, 573, 593, 510, 499, 534, 618, 578, 658, 685, 605, 547, 569, 564, 551, 492, 487, 490, 506, 548, 602, 509, 461, 480, 488, 552, 553, 513, 568, 587, 490, 499, 551, 521, 570, 617, 565, 535, 484, 537, 611, 524, 569, 578, 587, 571, 499, 544, 602, 548, 486, 582, 645, 533, 442, 446, 546, 551, 477, 529, 567, 502, 415, 587, 622, 589, 532, 527, 521, 525, 503, 582, 581, 604, 628, 516, 512, 477, 535, 475, 543, 562, 605, 580, 553, 557, 524, 484, 533, 570, 508, 584, 577, 584, 553, 558, 572, 574, 533, 612, 571, 570, 568, 611, 552, 551, 526, 546, 559, 590, 587, 596, 510, 509, 577, 565, 537, 505, 566, 494, 465, 538, 561, 593, 566, 533, 549, 579, 560, 552, 507, 514, 542, 530, 603, 564, 580, 543, 550, 539, 534, 559, 592, 639, 608, 605, 665, 592, 569, 567, 653, 568, 544, 644, 662, 608, 532, 527, 560, 569, 643, 658, 572, 511, 512, 523, 476, 524, 556, 601, 568, 501, 479, 542, 581, 567, 505, 523, 523, 421, 507, 580, 561, 502, 550, 527, 485, 511, 506, 541, 481, 568, 574, 496, 490, 535, 545, 507, 536, 601, 579, 553, 530, 542, 570, 519, 568, 700, 674, 554, 580, 605, 614, 605, 594, 638, 657, 635, 627, 509, 636, 668, 612, 980, 599, 819, 863, 653, 575, 876, 1100, 1502, 872, 1590, 1490, 1052, 952, 1882, 2307, 2226, 2368, 2634, 2032, 1572, 2316, 4325, 4112, 3338, 4648, 5245, 3005, 2046, 4118, 7662, 7083, 4510, 5722, 6000, 3118, 2388, 4117, 7696, 7401, 4556, 5362, 5615, 3281, 2208, 3103, 5676, 5912, 2715, 3953, 3935, 2236, 1472, 2037, 2902, 2489, 1633, 2858, 2857, 1414, 1201, 1249, 1830, 1392, 1230, 2452, 2595, 1422, 828, 1219, 1725, 1252, 946, 1867, 2077, 1232, 643, 1086, 1359, 968, 864, 1094, 1102, 795, 715, 783, 833, 763, 1206, 854, 1193, 1143, 960, 680, 1250, 1684, 1384, 2196, 2632, 1707, 1183, 1444, 2781, 2843, 1292, 2508, 2698, 1353, 842, 1831, 3232, 2779, 1272, 2836, 2979, 1504, 849, 1626, 2740, 2203, 1113, 2863, 3024, 1534, 775, 1658, 2758, 2178, 767, 1272, 1181, 765, 589, 1033, 1288, 913, 646, 609, 612, 598, 529, 688, 655, 569, 709, 576, 577, 691, 585, 505, 554, 618, 780, 777, 635, 557, 712, 730, 614, 636, 910, 1357, 1328, 739, 1001, 1131, 847, 639, 981, 1799, 1861, 1019, 1322, 1533, 1080, 761, 1116, 1758, 1686, 852, 1127, 1282, 806, 656, 758, 878, 855, 655, 788, 904, 681, 557, 1197, 1251, 901, 833, 963, 1048, 823, 797, 1101, 1022, 726, 766, 1027, 957, 753, 913, 1238, 1335, 1160, 968, 991, 843, 711, 938, 1197, 1208, 1121, 1106, 1079, 792, 751, 995, 778, 678, 702, 766, 788, 734, 702, 762, 778, 660, 612, 872, 707, 627, 804, 737, 1112, 943, 738, 1027, 786, 930, 1017, 832, 911, 866, 779, 934, 682, 834, 943, 642, 661, 822, 889, 704, 747, 797, 730, 640, 612, 758, 820, 658, 633, 616, 619, 665, 763, 774, 702, 689, 724, 631, 706, 806, 711, 723, 716, 741, 699, 686, 761, 762, 661, 620, 653, 648, 626, 657, 642, 708, 725, 727, 679, 744, 750, 715, 665, 709, 761, 686, 719, 731, 642, 730, 700, 711, 555, 537, 691, 711, 549, 614, 689, 579, 498, 560, 615, 712, 756, 635, 615, 598, 547, 578, 661, 771, 752, 601, 673, 679, 690, 669, 603, 634, 734, 680, 754, 814, 775, 790, 678, 653, 729, 726, 747, 826, 683, 703, 791, 640, 557, 722, 711, 659, 557, 536, 668, 690, 642, 672, 639, 576, 555, 613, 703, 691, 579, 592, 641, 642, 537, 584, 591, 583, 606, 487, 538, 484, 541, 632, 666, 570, 554, 598, 602, 583, 640, 688, 764, 719, 632, 616, 719, 789, 624, 614, 702, 793, 794, 666, 747, 807, 624, 587, 563, 609, 636, 609, 714, 711, 553, 574, 655, 648, 557, 570, 651, 568, 651, 650, 589, 565, 561, 605, 625, 590, 621, 599, 595, 524, 609, 653, 685, 694, 587, 587, 589, 516, 547, 600, 729, 751, 749, 716, 675, 615, 585, 686, 763, 798, 678, 754, 701, 581, 644, 745, 736, 629, 527, 591, 629, 627, 678, 613, 517, 544, 555, 536, 680, 720, 660, 683, 709, 681, 695, 676, 697, 733, 637, 766, 869, 717, 660, 603, 634, 643, 641, 675, 718, 673, 553, 491, 513, 515, 443, 549, 638, 526, 748, 590, 646, 704, 627, 662, 829, 928, 1129, 646, 1037, 1243, 940, 742, 1689, 1951, 990, 587, 988, 1112, 933, 625, 1418, 1709, 705, 643, 629, 827, 801, 630, 1157, 1158, 752, 662, 775, 847, 790, 732, 1274, 1304, 580, 689, 821, 765, 541, 756, 989, 780, 590, 720, 760, 723, 522, 686, 810, 672, 646, 813, 808, 760, 575, 747, 1004, 865, 616, 728, 896, 729, 530, 701, 952, 848, 594, 825, 943, 800, 589, 691, 985, 878, 618, 831, 886, 766, 702, 666, 1067, 1082, 678, 1135, 975, 665, 626, 827, 1308, 1003, 645, 1015, 879, 582, 527, 764, 1056, 765, 591, 760, 753, 532, 507, 658, 816, 686, 569, 603, 694, 700, 587, 479, 690, 721, 463, 751, 832, 649, 572, 527, 777, 767, 480, 612, 706, 571, 515, 508, 633, 657, 518, 575, 559, 509, 452, 490, 557, 500, 478, 598, 558, 472, 452, 514, 525, 415, 476, 627, 591, 502, 417, 503, 534, 359, 396, 549, 582, 474, 392, 376, 428, 401, 467, 397, 434, 519, 471, 394, 400, 446, 462, 431, 392, 476, 467, 435, 441, 446, 371, 433, 490, 517, 479, 448, 532, 460]"
0.8622422814369202,-0.4003521502017975,0.40427640080451965,-0.09555236995220184,-0.2854449152946472,1.296651840209961,-0.22265160083770752,-0.7243518233299255,1.2454032897949219,16.75,-0.20264428853988647,0.9696006774902344,17.25,0.15984731912612915,0.6478786468505859,16.25,0.4247780442237854,0.7201194763183594,20.75,0.5958672165870667,0.5201339721679688,22.0,"[633, 662, 574, 607, 734, 604, 576, 661, 544, 592, 562, 628, 768, 655, 538, 485, 471, 584, 550, 469, 559, 643, 601, 420, 413, 441, 490, 496, 509, 522, 497, 445, 389, 431, 509, 554, 507, 435, 535, 488, 549, 599, 488, 555, 535, 462, 547, 530, 556, 561, 492, 477, 496, 440, 518, 538, 560, 557, 532, 535, 477, 503, 517, 538, 487, 547, 536, 534, 480, 403, 473, 485, 487, 559, 621, 576, 460, 413, 510, 477, 505, 515, 572, 551, 562, 513, 520, 567, 617, 520, 585, 610, 591, 536, 524, 593, 486, 410, 379, 396, 434, 409, 424, 490, 523, 570, 568, 543, 487, 453, 463, 529, 532, 591, 626, 593, 584, 557, 569, 596, 564, 630, 566, 500, 528, 612, 570, 537, 581, 515, 513, 463, 508, 619, 616, 593, 598, 545, 609, 555, 509, 596, 573, 577, 624, 562, 625, 578, 595, 599, 526, 572, 535, 536, 554, 619, 614, 552, 559, 598, 515, 534, 538, 560, 514, 445, 573, 585, 595, 581, 553, 570, 542, 555, 530, 482, 616, 626, 522, 553, 565, 534, 573, 560, 564, 558, 503, 470, 526, 537, 593, 561, 529, 536, 531, 467, 413, 576, 601, 500, 475, 469, 512, 488, 512, 607, 557, 511, 471, 484, 532, 450, 495, 496, 548, 542, 613, 593, 594, 538, 567, 525, 535, 598, 511, 549, 579, 543, 524, 535, 540, 522, 555, 487, 483, 556, 598, 616, 606, 558, 559, 549, 546, 606, 598, 650, 661, 569, 581, 518, 460, 518, 507, 460, 491, 541, 539, 535, 534, 527, 468, 433, 464, 430, 523, 585, 565, 524, 515, 578, 541, 517, 618, 630, 596, 595, 584, 534, 545, 600, 510, 514, 545, 578, 560, 448, 506, 566, 522, 482, 528, 522, 494, 448, 492, 485, 430, 493, 626, 599, 523, 596, 595, 486, 541, 511, 480, 511, 518, 594, 567, 548, 639, 507, 554, 594, 502, 446, 521, 686, 1142, 583, 1081, 1094, 720, 507, 1040, 1442, 2308, 1185, 2672, 2458, 1292, 868, 2786, 3665, 2143, 1437, 2995, 2713, 1304, 1198, 3191, 3776, 2082, 1073, 1885, 1695, 1313, 905, 2685, 3409, 1728, 4653, 5088, 2551, 1165, 3219, 5775, 4679, 2340, 7536, 7763, 3721, 925, 4778, 7450, 4962, 2072, 6225, 6583, 3340, 1072, 3827, 6033, 4169, 2253, 6103, 6202, 2899, 1364, 3506, 5464, 3781, 2498, 6633, 6429, 2563, 1694, 3093, 5007, 3387, 1619, 5761, 5931, 2581, 1196, 2692, 4819, 3503, 709, 3199, 3551, 1749, 663, 1957, 3505, 2782, 850, 1072, 1536, 1112, 660, 947, 1737, 1792, 1725, 1938, 3067, 2280, 1008, 1163, 2700, 3300, 1988, 3301, 4420, 2879, 1227, 1885, 4064, 4320, 1509, 2723, 3133, 1933, 1053, 1846, 3108, 3009, 923, 1088, 1087, 885, 783, 931, 1160, 1092, 623, 672, 652, 572, 524, 557, 535, 565, 740, 960, 883, 688, 710, 797, 800, 642, 1053, 1581, 1458, 829, 1065, 1186, 947, 676, 1409, 2026, 1674, 841, 1316, 1365, 906, 741, 1301, 2007, 1717, 838, 1321, 1409, 804, 690, 1366, 2143, 1986, 1018, 1545, 1754, 1196, 925, 1126, 2317, 2342, 922, 1381, 1930, 1284, 755, 1072, 1843, 1720, 892, 1135, 1312, 871, 654, 902, 1052, 878, 798, 813, 712, 604, 701, 1049, 1064, 776, 744, 768, 930, 784, 671, 907, 913, 689, 768, 676, 905, 898, 542, 917, 775, 729, 832, 761, 855, 811, 721, 780, 667, 644, 758, 682, 546, 514, 666, 629, 669, 624, 617, 724, 653, 560, 579, 1097, 886, 1060, 903, 761, 1209, 1019, 739, 1482, 1048, 1303, 1438, 868, 1351, 1120, 865, 1032, 860, 1068, 1116, 709, 915, 752, 706, 671, 672, 766, 766, 643, 653, 660, 723, 645, 726, 653, 638, 591, 602, 615, 560, 537, 693, 604, 579, 611, 555, 577, 462, 643, 641, 578, 622, 604, 510, 519, 584, 704, 690, 671, 599, 579, 538, 576, 714, 678, 708, 731, 647, 538, 544, 581, 623, 600, 576, 717, 701, 589, 620, 608, 634, 587, 534, 692, 751, 639, 530, 539, 616, 640, 663, 592, 672, 712, 637, 576, 580, 679, 765, 691, 571, 694, 738, 605, 552, 790, 737, 630, 612, 837, 830, 626, 706, 611, 649, 656, 596, 675, 681, 625, 654, 660, 646, 686, 594, 663, 657, 680, 636, 733, 760, 685, 661, 696, 616, 604, 685, 793, 794, 686, 636, 678, 647, 608, 707, 708, 751, 697, 672, 696, 695, 714, 774, 584, 682, 750, 769, 684, 682, 812, 752, 647, 567, 631, 687, 698, 664, 743, 785, 748, 534, 612, 718, 621, 604, 702, 831, 690, 502, 636, 646, 592, 552, 516, 754, 660, 689, 669, 547, 593, 602, 534, 640, 611, 698, 705, 536, 597, 683, 658, 666, 613, 610, 608, 564, 629, 591, 588, 673, 627, 585, 655, 617, 593, 572, 512, 640, 711, 617, 728, 704, 647, 598, 596, 682, 578, 690, 790, 696, 507, 590, 730, 666, 752, 743, 738, 721, 544, 530, 575, 650, 874, 667, 623, 682, 620, 586, 720, 908, 789, 707, 659, 646, 654, 758, 778, 799, 517, 603, 731, 662, 571, 676, 627, 550, 559, 594, 651, 548, 542, 645, 568, 530, 565, 553, 537, 535, 582, 592, 599, 610, 572, 637, 577, 529, 555, 585, 661, 650, 554, 634, 690, 728, 730, 637, 701, 729, 689, 566, 730, 907, 813, 577, 813, 892, 767, 598, 773, 953, 831, 557, 969, 1045, 865, 711, 744, 750, 823, 728, 1048, 1153, 973, 624, 873, 785, 805, 675, 1226, 1486, 1026, 707, 1088, 978, 943, 700, 1286, 1621, 704, 734, 911, 889, 728, 696, 925, 957, 608, 941, 1067, 818, 629, 751, 1162, 1127, 650, 870, 964, 795, 705, 710, 1130, 1160, 605, 619, 610, 691, 694, 604, 618, 617, 715, 559, 728, 671, 649, 662, 794, 878, 820, 591, 783, 760, 703, 589, 802, 1077, 769, 573, 773, 771, 596, 571, 717, 880, 581, 626, 741, 635, 549, 520, 588, 671, 450, 615, 648, 552, 448, 433, 501, 496, 452, 515, 479, 479, 403, 469, 514, 438, 372, 415, 417, 395, 348, 410, 462, 377, 381, 421, 460, 418, 416, 431, 473, 415, 483, 470, 472, 493, 474, 433, 441, 479, 441, 409, 465, 459, 493, 496, 495, 541, 438, 505, 492, 399, 465, 538, 475, 454, 508, 437, 436, 428, 382, 432, 416, 448]"
0.8720499277114868,-0.5310585498809814,0.36728793382644653,-0.08427195250988007,-0.4478837847709656,1.0536407232284546,-0.22180786728858948,-0.7173343300819397,1.1645793914794922,25.0,-0.7173343300819397,1.3382434844970703,25.0,-0.14527279138565063,0.9049415588378906,25.0,0.00035327672958374023,0.7062435150146484,21.25,0.5212025046348572,0.40569305419921875,23.0,"[595, 633, 553, 602, 639, 598, 552, 633, 572, 625, 532, 671, 713, 614, 650, 634, 555, 605, 623, 598, 580, 711, 700, 618, 505, 511, 550, 523, 369, 513, 586, 562, 571, 572, 504, 437, 486, 512, 492, 455, 588, 551, 461, 408, 442, 562, 491, 421, 529, 452, 461, 418, 454, 531, 450, 468, 574, 503, 476, 439, 499, 493, 455, 522, 548, 506, 529, 553, 568, 497, 525, 589, 595, 541, 518, 548, 577, 646, 660, 638, 650, 515, 526, 605, 632, 569, 559, 663, 562, 533, 570, 521, 578, 580, 641, 637, 630, 578, 497, 487, 549, 588, 528, 588, 642, 578, 498, 488, 493, 558, 497, 597, 489, 457, 495, 457, 506, 573, 540, 548, 504, 491, 509, 533, 525, 516, 532, 508, 508, 384, 464, 567, 550, 474, 487, 530, 552, 506, 559, 602, 529, 512, 545, 586, 595, 519, 619, 707, 601, 539, 558, 572, 580, 543, 520, 614, 606, 509, 571, 610, 547, 536, 501, 543, 564, 542, 585, 584, 632, 633, 564, 517, 579, 515, 439, 554, 590, 629, 577, 513, 552, 595, 542, 538, 521, 636, 599, 547, 551, 574, 561, 527, 527, 600, 634, 543, 564, 642, 551, 547, 554, 524, 607, 526, 542, 632, 540, 570, 559, 483, 488, 545, 578, 550, 554, 555, 551, 509, 528, 640, 597, 517, 568, 545, 527, 459, 576, 653, 495, 486, 507, 529, 586, 519, 552, 623, 589, 582, 555, 585, 566, 566, 530, 557, 599, 594, 533, 562, 461, 588, 547, 483, 548, 550, 555, 508, 486, 484, 533, 529, 496, 500, 550, 547, 557, 608, 641, 538, 510, 617, 607, 567, 574, 566, 578, 526, 568, 552, 528, 590, 629, 529, 520, 561, 573, 594, 598, 644, 592, 548, 476, 464, 519, 480, 459, 520, 553, 571, 511, 473, 434, 451, 542, 536, 651, 610, 574, 537, 528, 615, 538, 559, 1693, 883, 1263, 1278, 1022, 894, 1406, 1971, 4188, 1533, 3963, 3529, 2233, 1387, 4810, 6563, 5445, 2484, 6214, 4989, 2923, 2253, 8087, 9966, 4814, 3001, 5825, 4421, 2980, 2820, 8820, 9984, 4736, 4214, 6049, 5279, 3350, 3622, 9433, 9933, 4216, 7640, 9478, 7179, 2932, 5045, 9300, 8363, 2880, 8909, 10163, 6137, 1293, 5043, 7843, 5288, 1682, 4896, 5217, 2754, 935, 3055, 4179, 2513, 730, 1172, 1345, 920, 703, 1143, 1375, 1047, 684, 1227, 1629, 1239, 653, 892, 1318, 1262, 958, 2015, 1979, 1073, 809, 1245, 1600, 1134, 968, 2684, 2911, 1399, 729, 1461, 2540, 1992, 1532, 2354, 3485, 2139, 831, 1458, 3699, 3907, 2251, 2236, 3879, 2515, 1080, 1882, 4969, 5427, 1451, 2636, 3515, 2065, 847, 2235, 4656, 4417, 807, 1234, 1404, 958, 658, 1285, 2181, 1864, 680, 899, 876, 670, 592, 581, 839, 768, 684, 889, 807, 631, 551, 614, 732, 614, 684, 829, 761, 608, 618, 717, 669, 525, 864, 1183, 870, 578, 893, 889, 721, 565, 1155, 1197, 1018, 984, 1107, 1089, 967, 969, 1033, 2143, 2957, 1843, 1208, 2612, 2509, 1713, 1276, 2961, 3452, 1727, 1510, 3004, 2760, 1609, 992, 1596, 1563, 846, 1095, 1589, 1305, 846, 977, 1110, 693, 568, 747, 864, 836, 646, 1485, 1699, 1344, 1170, 936, 1286, 1472, 1117, 2487, 2824, 2174, 1450, 1389, 1729, 1973, 1804, 2600, 2812, 2261, 1798, 1628, 1540, 1544, 1884, 1680, 1628, 1416, 1536, 1368, 999, 780, 1258, 814, 765, 676, 789, 851, 674, 569, 700, 771, 803, 741, 740, 821, 775, 724, 715, 859, 894, 1040, 934, 740, 945, 807, 562, 911, 843, 1117, 1059, 728, 1011, 982, 672, 672, 644, 786, 703, 596, 690, 676, 679, 608, 534, 658, 707, 604, 560, 675, 697, 578, 572, 682, 711, 665, 594, 715, 690, 596, 632, 663, 656, 641, 621, 696, 680, 537, 609, 631, 644, 617, 578, 536, 535, 655, 589, 553, 618, 677, 615, 540, 635, 608, 708, 698, 550, 631, 672, 590, 592, 640, 751, 787, 675, 611, 669, 672, 673, 589, 607, 648, 630, 529, 621, 728, 687, 523, 648, 752, 678, 559, 653, 731, 665, 554, 616, 733, 662, 614, 691, 627, 599, 614, 679, 815, 710, 623, 676, 680, 637, 591, 723, 740, 646, 577, 624, 714, 628, 621, 697, 637, 608, 599, 652, 728, 683, 691, 640, 568, 613, 685, 602, 638, 707, 739, 750, 679, 629, 749, 658, 627, 782, 765, 617, 520, 600, 666, 620, 595, 763, 704, 693, 663, 613, 598, 556, 680, 779, 618, 557, 572, 619, 691, 567, 577, 657, 645, 625, 662, 631, 610, 679, 660, 691, 550, 635, 580, 509, 628, 704, 651, 645, 574, 658, 603, 635, 758, 761, 707, 643, 531, 570, 502, 572, 682, 541, 585, 621, 578, 629, 593, 618, 609, 664, 711, 623, 539, 678, 663, 570, 574, 613, 705, 627, 552, 627, 672, 564, 528, 633, 727, 602, 596, 521, 563, 588, 538, 603, 595, 559, 652, 639, 623, 645, 506, 518, 568, 578, 579, 612, 637, 615, 542, 600, 589, 549, 574, 507, 595, 648, 575, 591, 692, 631, 648, 628, 575, 538, 590, 652, 644, 644, 753, 687, 647, 668, 654, 691, 663, 683, 757, 628, 641, 791, 672, 637, 682, 654, 1060, 631, 771, 1080, 950, 558, 983, 1295, 911, 529, 817, 1026, 863, 544, 959, 1228, 573, 552, 772, 803, 660, 505, 750, 792, 646, 697, 870, 760, 662, 727, 940, 964, 779, 890, 1282, 1049, 759, 823, 1390, 1447, 973, 900, 1403, 1206, 861, 858, 1686, 1847, 1041, 737, 1212, 1074, 814, 763, 1685, 1832, 815, 576, 776, 732, 644, 747, 1233, 1256, 715, 589, 675, 754, 691, 634, 719, 796, 676, 664, 712, 742, 672, 744, 1010, 993, 602, 618, 607, 679, 513, 657, 801, 687, 731, 733, 709, 723, 564, 590, 637, 687, 705, 621, 631, 690, 600, 562, 617, 721, 571, 485, 549, 597, 533, 558, 540, 593, 505, 422, 516, 545, 546, 479, 424, 475, 512, 414, 440, 476, 518, 498, 450, 443, 524, 510, 541, 460, 505, 611, 513, 454, 496, 506, 493, 448, 420, 510, 543, 471, 479, 548, 527, 466, 442, 582, 525, 497, 445, 494, 470, 327, 375, 420, 452, 430, 418, 453, 472, 429, 428, 396, 446, 464, 464, 471, 513, 483, 444, 411, 510, 523, 424, 476, 492, 416, 473, 469, 435, 435]"
0.7478058338165283,-0.5283480286598206,0.606465220451355,-0.42165064811706543,-0.4491736888885498,1.1982313394546509,-0.6407921314239502,-0.04725635051727295,0.6596088409423828,17.5,-0.0030535459518432617,0.59967041015625,20.5,0.027559399604797363,0.5491733551025391,18.75,0.02898991107940674,0.7318496704101562,17.25,0.49519360065460205,0.3058433532714844,15.5,"[534, 558, 625, 587, 567, 590, 626, 561, 505, 460, 491, 541, 525, 514, 585, 565, 534, 543, 514, 460, 515, 581, 554, 510, 465, 486, 511, 493, 428, 498, 534, 500, 502, 514, 553, 509, 412, 478, 587, 544, 525, 541, 569, 540, 512, 496, 540, 503, 496, 480, 474, 518, 508, 460, 434, 490, 496, 552, 500, 538, 567, 484, 464, 499, 530, 538, 527, 593, 612, 598, 528, 502, 513, 489, 496, 551, 514, 522, 527, 538, 610, 472, 413, 481, 498, 508, 509, 580, 494, 472, 477, 543, 503, 466, 551, 530, 475, 500, 541, 563, 497, 509, 514, 430, 493, 544, 551, 600, 558, 519, 568, 479, 554, 546, 599, 602, 553, 497, 460, 509, 621, 533, 544, 639, 577, 492, 496, 572, 719, 588, 601, 659, 598, 541, 511, 691, 602, 477, 608, 720, 669, 620, 563, 663, 458, 514, 595, 531, 581, 599, 524, 486, 553, 527, 529, 540, 592, 569, 574, 562, 432, 421, 456, 530, 454, 443, 465, 450, 439, 525, 533, 486, 496, 622, 534, 456, 531, 571, 472, 453, 561, 613, 577, 516, 569, 514, 530, 594, 498, 537, 587, 563, 558, 466, 512, 610, 553, 516, 562, 594, 515, 591, 539, 498, 542, 575, 565, 496, 603, 640, 537, 499, 594, 634, 520, 464, 619, 575, 519, 614, 634, 561, 508, 598, 547, 563, 572, 611, 579, 580, 565, 594, 536, 573, 543, 539, 511, 562, 575, 550, 469, 484, 601, 638, 533, 575, 614, 540, 470, 493, 564, 596, 393, 457, 570, 531, 516, 479, 491, 503, 470, 484, 529, 509, 560, 537, 522, 509, 520, 565, 534, 485, 563, 554, 551, 591, 585, 595, 547, 492, 493, 492, 538, 588, 548, 558, 599, 600, 452, 485, 553, 595, 597, 471, 573, 618, 522, 504, 526, 545, 559, 528, 574, 594, 1188, 733, 1020, 942, 848, 767, 1181, 1523, 2857, 1312, 2588, 2204, 1815, 1346, 3592, 4607, 3475, 1386, 3125, 2697, 2180, 1368, 4340, 5674, 2513, 1003, 2390, 2213, 1790, 705, 2918, 4033, 2142, 1592, 2526, 2088, 1631, 1407, 3362, 3976, 2192, 2462, 3632, 2335, 1666, 2183, 5731, 5878, 855, 4375, 4714, 2097, 777, 3107, 5972, 4823, 1423, 5550, 7015, 3999, 994, 3408, 7126, 6330, 1131, 3696, 5023, 3031, 902, 2323, 5117, 4815, 783, 1388, 1810, 1319, 792, 1062, 1954, 1837, 777, 1012, 1033, 818, 707, 769, 985, 969, 610, 1043, 1272, 923, 606, 628, 979, 1059, 721, 1237, 1061, 673, 745, 813, 893, 743, 745, 1474, 1541, 879, 709, 1042, 1747, 1515, 948, 2368, 3151, 1828, 672, 1814, 3831, 3544, 883, 2276, 3004, 1723, 589, 1737, 3677, 3433, 694, 1219, 1360, 827, 500, 866, 1643, 1544, 652, 917, 942, 659, 558, 709, 937, 808, 675, 861, 787, 627, 675, 695, 585, 527, 1416, 2159, 1649, 638, 873, 1019, 1084, 564, 1589, 2150, 1396, 656, 1066, 958, 1116, 702, 1233, 1494, 1021, 712, 1033, 858, 700, 697, 1654, 3054, 2642, 842, 1508, 1728, 1154, 765, 1674, 3487, 3330, 1208, 1512, 2080, 1566, 930, 1098, 1637, 1709, 950, 1009, 1442, 1205, 759, 912, 1135, 1137, 827, 880, 1155, 935, 673, 1447, 1639, 1384, 977, 1068, 1374, 1299, 1168, 2534, 2665, 2253, 1855, 1911, 1830, 1792, 1973, 2506, 2589, 2258, 2106, 1946, 1496, 1261, 1869, 1428, 1684, 1531, 1272, 1080, 900, 790, 1054, 910, 960, 842, 721, 822, 843, 680, 785, 978, 757, 979, 1015, 804, 1051, 828, 919, 1298, 766, 1199, 1297, 704, 1138, 926, 1020, 1376, 917, 1146, 1262, 846, 1139, 789, 984, 1019, 797, 871, 896, 656, 846, 659, 792, 918, 816, 711, 749, 668, 607, 636, 792, 713, 798, 699, 648, 602, 580, 572, 622, 708, 798, 637, 588, 697, 629, 564, 544, 639, 731, 661, 628, 632, 635, 643, 649, 715, 649, 667, 731, 655, 628, 730, 787, 682, 664, 710, 712, 642, 699, 637, 719, 625, 626, 629, 621, 696, 659, 494, 572, 639, 620, 601, 627, 630, 619, 576, 514, 628, 703, 577, 543, 629, 694, 649, 517, 598, 632, 580, 567, 584, 680, 673, 504, 502, 588, 547, 527, 522, 540, 565, 499, 529, 580, 500, 555, 585, 548, 615, 551, 645, 678, 703, 702, 693, 684, 729, 657, 675, 649, 639, 674, 695, 670, 736, 706, 600, 721, 552, 598, 622, 573, 709, 662, 601, 719, 572, 573, 628, 583, 642, 583, 629, 664, 667, 657, 625, 648, 654, 571, 576, 644, 624, 567, 563, 644, 589, 454, 600, 690, 568, 591, 573, 614, 637, 603, 630, 673, 572, 573, 640, 649, 625, 598, 604, 578, 589, 617, 634, 597, 570, 614, 505, 550, 610, 673, 618, 587, 601, 607, 577, 605, 628, 698, 705, 593, 637, 623, 572, 696, 611, 571, 613, 589, 561, 532, 657, 682, 603, 629, 597, 537, 538, 548, 643, 678, 672, 644, 572, 549, 596, 610, 465, 600, 648, 645, 537, 569, 704, 587, 559, 577, 654, 630, 607, 731, 748, 673, 600, 675, 809, 747, 688, 792, 765, 605, 589, 612, 678, 653, 638, 708, 728, 603, 694, 680, 689, 565, 601, 697, 665, 657, 784, 790, 628, 650, 655, 638, 565, 628, 657, 634, 546, 579, 556, 634, 589, 530, 608, 606, 517, 645, 537, 535, 804, 745, 721, 554, 656, 769, 712, 668, 989, 1062, 768, 614, 800, 802, 747, 594, 1011, 1197, 717, 610, 827, 785, 657, 674, 1024, 1055, 756, 762, 1085, 1002, 719, 833, 1444, 1461, 848, 766, 912, 816, 659, 727, 1283, 1402, 692, 739, 799, 726, 681, 672, 1199, 1214, 603, 727, 676, 630, 627, 607, 1037, 1039, 621, 588, 528, 529, 609, 553, 627, 746, 614, 555, 561, 599, 622, 510, 638, 738, 558, 640, 623, 571, 545, 567, 771, 748, 589, 599, 668, 622, 529, 606, 723, 715, 568, 580, 634, 571, 472, 552, 626, 644, 558, 591, 661, 548, 455, 516, 600, 679, 463, 575, 589, 487, 390, 430, 499, 505, 429, 438, 457, 506, 486, 429, 450, 498, 520, 474, 468, 503, 471, 420, 417, 499, 509, 450, 402, 486, 501, 491, 493, 467, 380, 339, 441, 477, 382, 450, 459, 375, 443, 385, 361, 482, 453, 339, 329, 388, 494, 485, 396, 396, 426, 449, 477, 421, 472, 395, 443, 440, 416, 429, 485, 526]"
