posz,velx,vely,velz,accx,accy,accz,p1x,p1y,p1z,p2x,p2y,p2z,p3x,p3y,p3z,p4x,p4y,p4z,p5x,p5y,p5z,heatmap
0.3203860819339752,0.2123660147190094,0.488047331571579,-0.05210964381694794,0.19441407918930054,0.5958113074302673,0.24668559432029724,-0.928641140460968,1.9008636474609375,16.25,-0.6874569058418274,0.8414268493652344,17.0,-0.22711831331253052,0.5221366882324219,20.0,-0.12011605501174927,0.3989696502685547,28.25,-0.0962265133857727,0.3882408142089844,21.25,"[651, 603, 650, 680, 642, 684, 650, 600, 637, 582, 587, 632, 731, 803, 631, 609, 526, 562, 586, 568, 571, 663, 590, 498, 539, 560, 613, 536, 526, 606, 529, 517, 437, 505, 543, 444, 434, 508, 574, 487, 520, 510, 485, 491, 526, 450, 514, 540, 520, 511, 515, 581, 572, 454, 536, 568, 537, 473, 481, 472, 485, 495, 541, 567, 552, 462, 413, 445, 444, 424, 487, 533, 566, 494, 482, 609, 540, 462, 453, 529, 574, 535, 600, 626, 573, 518, 506, 535, 619, 558, 633, 641, 555, 444, 558, 654, 489, 545, 621, 611, 588, 543, 623, 619, 496, 573, 639, 625, 605, 593, 623, 596, 567, 630, 577, 532, 582, 594, 567, 576, 652, 600, 606, 578, 566, 568, 552, 538, 483, 525, 560, 501, 515, 512, 553, 567, 529, 556, 576, 540, 577, 559, 509, 546, 545, 588, 625, 624, 593, 583, 604, 616, 581, 580, 634, 635, 665, 567, 624, 664, 595, 573, 590, 604, 616, 574, 581, 614, 498, 502, 553, 605, 560, 517, 588, 524, 494, 477, 614, 588, 551, 557, 549, 588, 554, 566, 563, 574, 583, 549, 583, 612, 626, 627, 577, 482, 493, 577, 635, 602, 767, 972, 824, 560, 547, 680, 717, 640, 898, 1343, 1097, 598, 618, 903, 1028, 689, 809, 1079, 915, 565, 721, 871, 906, 715, 690, 896, 778, 559, 651, 705, 725, 624, 583, 669, 744, 619, 530, 634, 598, 609, 939, 657, 1200, 1377, 763, 906, 1647, 1559, 2228, 838, 1885, 2812, 1839, 1471, 4177, 4417, 3292, 1170, 2477, 3525, 2421, 1843, 5604, 6177, 3775, 2056, 3314, 2896, 1950, 2663, 6704, 7256, 8859, 4761, 11611, 9558, 3788, 4146, 13532, 16463, 10712, 6260, 16426, 13535, 4650, 4433, 16597, 20742, 6195, 5422, 10407, 7873, 2855, 4042, 10410, 12282, 2829, 3584, 4194, 2494, 1229, 2275, 4746, 4906, 2598, 2783, 2963, 1950, 1370, 1960, 3950, 4076, 6029, 9995, 11886, 6819, 2511, 7321, 14298, 13294, 9120, 20225, 22288, 11305, 3394, 13074, 24395, 21007, 7320, 19233, 19374, 8372, 2947, 11376, 20056, 15513, 2938, 7132, 6387, 2266, 1359, 4010, 6742, 4745, 1760, 4488, 4504, 2117, 1187, 2544, 3589, 2334, 2113, 4564, 3996, 1353, 1257, 2310, 3354, 1896, 950, 1518, 1384, 778, 690, 856, 1110, 893, 612, 779, 830, 759, 579, 615, 757, 632, 680, 763, 722, 678, 676, 628, 616, 582, 768, 777, 608, 561, 634, 646, 492, 571, 694, 592, 616, 653, 576, 695, 706, 695, 857, 793, 825, 867, 723, 661, 813, 829, 1102, 1187, 978, 914, 856, 985, 1006, 853, 1015, 1257, 890, 814, 865, 1127, 1100, 690, 912, 1058, 991, 922, 1008, 892, 1039, 903, 1086, 1225, 1181, 1090, 1168, 1031, 1004, 1069, 989, 1272, 1290, 1094, 996, 964, 869, 1011, 828, 1116, 1115, 942, 842, 945, 887, 912, 1484, 2693, 2539, 1101, 1171, 1488, 1025, 805, 3063, 5249, 4645, 1569, 2045, 2626, 1619, 1064, 2796, 5163, 4693, 1645, 2207, 2835, 1720, 1022, 1805, 3351, 3247, 1649, 2224, 2780, 1755, 904, 1559, 1729, 2417, 2649, 2200, 2084, 1853, 1395, 1928, 2409, 3864, 3992, 2232, 2080, 2782, 1988, 1530, 2099, 3209, 3137, 1671, 1920, 2559, 1683, 923, 1028, 1326, 1292, 945, 1100, 1122, 857, 791, 748, 787, 725, 709, 806, 734, 672, 845, 759, 758, 764, 718, 757, 604, 728, 752, 794, 819, 736, 533, 753, 730, 687, 748, 655, 732, 695, 573, 734, 759, 717, 732, 789, 844, 760, 626, 750, 863, 864, 750, 841, 871, 801, 648, 809, 954, 784, 681, 830, 777, 747, 627, 841, 909, 731, 619, 833, 720, 710, 688, 756, 936, 798, 639, 851, 809, 676, 597, 754, 951, 818, 715, 1000, 1104, 820, 604, 786, 1056, 924, 830, 900, 839, 741, 733, 798, 867, 776, 774, 778, 780, 705, 695, 713, 715, 748, 812, 795, 739, 738, 727, 716, 628, 745, 743, 753, 823, 769, 653, 741, 704, 738, 631, 634, 760, 716, 625, 686, 796, 806, 608, 628, 809, 722, 549, 576, 722, 720, 788, 782, 689, 655, 737, 723, 696, 661, 833, 851, 722, 616, 754, 840, 786, 779, 607, 766, 866, 689, 645, 761, 824, 734, 553, 789, 881, 703, 596, 696, 714, 695, 677, 851, 889, 813, 617, 770, 810, 679, 633, 786, 847, 706, 667, 670, 766, 783, 657, 700, 684, 746, 727, 603, 661, 770, 509, 572, 761, 768, 616, 561, 600, 623, 623, 626, 734, 734, 657, 609, 598, 571, 660, 644, 649, 654, 580, 572, 558, 670, 668, 623, 700, 785, 656, 603, 714, 792, 623, 717, 651, 508, 580, 589, 661, 684, 653, 778, 682, 627, 677, 657, 681, 635, 570, 638, 652, 588, 506, 584, 702, 618, 564, 682, 698, 549, 489, 709, 833, 682, 632, 560, 524, 476, 510, 644, 682, 651, 628, 648, 556, 516, 520, 560, 651, 586, 600, 654, 731, 644, 568, 643, 673, 625, 627, 792, 713, 596, 651, 734, 764, 570, 725, 1030, 863, 573, 654, 799, 765, 585, 671, 971, 951, 605, 543, 733, 862, 722, 678, 872, 764, 624, 676, 731, 701, 683, 657, 682, 748, 747, 618, 675, 730, 645, 708, 752, 777, 679, 581, 686, 590, 613, 1147, 1165, 989, 815, 897, 1031, 778, 814, 1199, 1168, 1296, 1142, 928, 1140, 1326, 1361, 911, 956, 1327, 1149, 835, 982, 1527, 1552, 682, 618, 891, 908, 669, 698, 1123, 1111, 570, 627, 700, 745, 640, 660, 875, 817, 601, 682, 654, 796, 753, 636, 859, 849, 738, 763, 715, 771, 718, 636, 850, 893, 589, 723, 676, 580, 688, 701, 704, 705, 614, 663, 660, 622, 612, 601, 622, 656, 701, 740, 892, 767, 548, 596, 773, 896, 715, 984, 895, 762, 650, 664, 874, 861, 537, 892, 938, 737, 655, 695, 867, 829, 597, 762, 850, 716, 660, 638, 752, 751, 698, 689, 568, 598, 635, 636, 621, 634, 508, 492, 470, 570, 609, 584, 495, 497, 456, 528, 514, 469, 473, 547, 572, 476, 508, 565, 617, 504, 482, 530, 549, 570, 496, 562, 513, 468, 461, 515, 546, 514, 545, 531, 429, 471, 525, 500, 482, 437, 524, 545, 525, 486, 419, 462, 440, 439, 547, 650, 580, 521, 468, 477, 600, 501, 475, 618, 599, 518, 475, 553, 652, 524, 474, 515, 534, 513, 434, 488, 550, 528]"
0.39035263657569885,0.19880978763103485,0.39344924688339233,0.18416666984558105,0.13498714566230774,0.35896289348602295,0.531498908996582,-0.9256749153137207,2.002286911010742,19.0,-0.5136876106262207,0.7884979248046875,24.25,-0.36591577529907227,0.6647586822509766,28.0,-0.2793698310852051,0.5870819091796875,25.0,-0.24074602127075195,0.5919456481933594,20.5,"[506, 585, 618, 629, 728, 629, 622, 581, 517, 600, 645, 743, 742, 688, 748, 697, 427, 462, 571, 650, 607, 638, 704, 572, 536, 496, 535, 464, 490, 552, 545, 592, 533, 495, 483, 474, 471, 435, 493, 545, 401, 467, 522, 489, 453, 451, 465, 456, 495, 467, 476, 541, 475, 500, 527, 504, 634, 599, 548, 538, 574, 509, 540, 636, 555, 616, 664, 570, 518, 510, 557, 548, 527, 626, 586, 523, 580, 551, 561, 516, 584, 576, 551, 560, 535, 508, 540, 599, 533, 546, 546, 523, 456, 419, 517, 498, 481, 531, 533, 458, 449, 461, 476, 533, 517, 532, 565, 525, 526, 553, 563, 562, 502, 589, 654, 611, 568, 633, 632, 505, 551, 541, 612, 649, 543, 608, 623, 576, 531, 583, 591, 588, 610, 591, 652, 593, 559, 576, 497, 535, 635, 579, 576, 566, 620, 566, 506, 549, 540, 522, 550, 565, 562, 593, 577, 582, 553, 553, 574, 593, 639, 543, 530, 483, 464, 539, 529, 639, 550, 526, 522, 490, 549, 572, 576, 608, 547, 544, 532, 532, 520, 469, 554, 608, 604, 533, 623, 715, 623, 518, 523, 598, 527, 562, 557, 558, 505, 539, 523, 513, 788, 1033, 779, 547, 662, 779, 806, 503, 1431, 2063, 1405, 665, 952, 1280, 1425, 637, 1465, 1898, 1213, 640, 1114, 1604, 1500, 685, 776, 1021, 767, 470, 850, 1207, 1037, 532, 667, 809, 720, 557, 659, 773, 752, 645, 1242, 940, 1544, 1502, 985, 1270, 2798, 2828, 4635, 2568, 5161, 5259, 3770, 3100, 9593, 10354, 6925, 3608, 7553, 7713, 5900, 3955, 13586, 15073, 4091, 3299, 5806, 5449, 4257, 2686, 8766, 9603, 3336, 2576, 3632, 2985, 2305, 1539, 5343, 6230, 6075, 3784, 6367, 5192, 3670, 3674, 10882, 12174, 6603, 4544, 7540, 5999, 4196, 4081, 11971, 13336, 4199, 3471, 4954, 4022, 2417, 2639, 6693, 7405, 1701, 3144, 3351, 2122, 892, 1638, 2075, 1761, 1890, 3291, 3200, 1729, 1177, 2062, 2423, 1615, 2376, 2800, 2218, 1287, 1320, 2439, 3189, 2485, 3792, 8076, 7676, 3223, 2038, 3820, 5816, 3963, 3885, 10495, 10196, 3965, 2487, 4370, 7057, 4401, 1904, 5188, 5102, 1957, 1488, 2379, 3532, 2314, 1020, 752, 1092, 956, 751, 615, 857, 1212, 1073, 1452, 1359, 820, 737, 883, 999, 917, 616, 779, 744, 656, 678, 696, 705, 652, 708, 710, 605, 634, 655, 632, 580, 548, 647, 655, 647, 594, 613, 663, 633, 547, 658, 604, 701, 647, 555, 621, 668, 691, 600, 558, 564, 617, 647, 675, 673, 657, 570, 685, 706, 576, 648, 766, 662, 577, 703, 875, 818, 713, 890, 939, 706, 587, 1278, 1793, 1377, 847, 1563, 1528, 864, 736, 1668, 2562, 1966, 943, 1908, 1851, 1173, 1010, 1301, 1862, 1535, 952, 1402, 1571, 1258, 945, 1571, 1899, 1930, 1912, 1985, 1735, 1410, 1176, 4260, 6035, 5240, 3985, 4948, 4476, 2431, 2238, 5064, 7431, 6252, 4271, 5927, 5369, 2537, 2262, 2375, 3753, 3170, 1720, 3155, 3179, 1512, 1006, 892, 1463, 1676, 941, 1436, 1909, 1213, 650, 942, 811, 621, 716, 939, 924, 702, 773, 1538, 1835, 1440, 1034, 1084, 845, 829, 832, 2231, 2872, 1861, 1098, 1586, 1313, 1227, 861, 2121, 2409, 1342, 1110, 1650, 1251, 986, 1066, 1238, 1387, 845, 840, 1125, 809, 708, 809, 659, 933, 770, 589, 680, 634, 639, 535, 502, 722, 825, 697, 644, 739, 749, 597, 620, 723, 713, 622, 557, 702, 823, 692, 649, 728, 676, 612, 555, 661, 690, 610, 625, 710, 743, 655, 596, 637, 633, 585, 668, 796, 848, 734, 582, 717, 785, 713, 675, 739, 776, 792, 664, 759, 896, 812, 571, 584, 664, 639, 620, 722, 837, 768, 497, 576, 629, 681, 690, 621, 649, 638, 512, 682, 679, 563, 545, 532, 530, 511, 631, 641, 669, 622, 586, 579, 587, 584, 730, 717, 771, 759, 640, 672, 783, 824, 733, 795, 825, 756, 593, 733, 828, 757, 791, 869, 928, 762, 634, 800, 901, 888, 681, 811, 923, 753, 622, 808, 898, 764, 590, 817, 881, 736, 666, 725, 805, 711, 664, 807, 852, 660, 636, 769, 789, 796, 597, 657, 825, 791, 579, 726, 865, 773, 594, 651, 844, 807, 631, 676, 948, 895, 721, 721, 822, 769, 662, 662, 728, 782, 789, 910, 667, 619, 734, 744, 624, 632, 747, 826, 755, 623, 627, 748, 715, 708, 704, 666, 690, 630, 609, 734, 732, 676, 597, 671, 658, 599, 616, 635, 676, 609, 555, 570, 557, 571, 626, 623, 603, 549, 723, 640, 593, 741, 707, 635, 600, 622, 725, 669, 659, 617, 610, 620, 590, 583, 674, 677, 688, 619, 558, 639, 695, 653, 687, 676, 642, 610, 600, 632, 641, 608, 623, 555, 599, 646, 656, 625, 619, 643, 499, 575, 708, 633, 564, 609, 585, 600, 582, 573, 536, 462, 495, 554, 630, 625, 606, 642, 625, 563, 503, 547, 631, 595, 630, 721, 681, 606, 538, 546, 599, 604, 641, 924, 801, 549, 506, 543, 683, 575, 604, 716, 639, 705, 559, 547, 673, 554, 564, 621, 740, 769, 572, 618, 659, 608, 650, 670, 870, 827, 611, 678, 648, 695, 604, 724, 905, 733, 667, 685, 669, 764, 616, 748, 817, 730, 729, 781, 721, 729, 567, 607, 661, 525, 551, 684, 648, 579, 593, 585, 612, 580, 576, 578, 619, 549, 542, 589, 580, 539, 508, 469, 624, 640, 642, 696, 715, 631, 575, 571, 634, 630, 725, 750, 666, 633, 630, 745, 728, 635, 507, 677, 690, 599, 567, 691, 790, 641, 572, 807, 739, 627, 649, 620, 750, 627, 579, 795, 713, 588, 536, 623, 679, 565, 595, 698, 631, 564, 584, 621, 662, 556, 812, 865, 616, 554, 669, 875, 816, 579, 614, 665, 662, 539, 585, 747, 671, 554, 621, 615, 608, 594, 628, 652, 601, 642, 622, 555, 478, 517, 521, 564, 525, 495, 562, 564, 507, 481, 468, 474, 493, 506, 532, 504, 464, 497, 558, 475, 395, 487, 449, 430, 403, 490, 475, 455, 480, 479, 590, 541, 544, 551, 507, 561, 588, 586, 584, 541, 534, 495, 493, 473, 478, 560, 514, 474, 461, 442, 440, 496, 473, 443, 580, 490, 462, 523, 555, 545, 502, 575, 482, 435, 451, 411, 440, 419, 495, 529, 457, 566, 570, 447, 464, 507, 535, 537]"
0.41953620314598083,0.1804141104221344,0.33476942777633667,0.2684601843357086,0.08820795267820358,0.22363747656345367,0.5741496682167053,-0.36493194103240967,0.6714820861816406,28.5,-0.2911175489425659,0.6289958953857422,22.25,-0.29054534435272217,0.6049633026123047,27.5,-0.12417685985565186,0.4105567932128906,30.25,-0.1144493818283081,0.3963947296142578,24.5,"[491, 543, 593, 592, 583, 594, 595, 548, 539, 500, 587, 620, 664, 629, 654, 669, 572, 472, 529, 645, 682, 535, 608, 712, 669, 577, 546, 642, 691, 582, 492, 665, 606, 570, 466, 570, 627, 530, 478, 562, 621, 689, 642, 610, 561, 571, 586, 531, 545, 532, 534, 593, 521, 435, 493, 522, 537, 485, 509, 561, 527, 528, 572, 554, 430, 464, 513, 573, 556, 512, 475, 432, 466, 491, 586, 601, 567, 548, 559, 524, 491, 508, 509, 538, 595, 589, 522, 512, 558, 548, 562, 598, 560, 534, 495, 562, 496, 522, 527, 486, 478, 485, 472, 478, 459, 534, 582, 556, 484, 548, 610, 510, 477, 518, 599, 576, 511, 535, 649, 596, 436, 525, 559, 526, 450, 445, 548, 511, 457, 507, 610, 575, 519, 483, 571, 518, 555, 593, 586, 668, 606, 527, 593, 597, 509, 598, 540, 543, 546, 540, 614, 497, 543, 565, 624, 569, 506, 556, 482, 499, 602, 521, 578, 561, 594, 612, 496, 614, 563, 532, 567, 534, 560, 591, 579, 616, 601, 555, 646, 644, 529, 538, 591, 636, 620, 567, 625, 647, 587, 621, 560, 616, 561, 536, 569, 534, 610, 666, 603, 568, 592, 588, 595, 599, 654, 714, 616, 556, 865, 927, 740, 607, 657, 822, 754, 624, 1084, 1274, 877, 583, 836, 1154, 1029, 613, 835, 966, 612, 542, 704, 954, 900, 538, 679, 775, 672, 710, 724, 633, 630, 607, 847, 884, 1009, 1222, 965, 804, 1396, 1315, 3351, 2240, 3747, 4373, 2861, 2601, 7422, 7693, 7721, 3285, 7295, 8689, 6207, 4165, 14437, 16007, 6959, 3022, 6679, 7756, 5713, 3320, 12259, 13925, 5719, 3627, 5301, 4725, 4081, 3259, 8504, 9866, 13264, 6013, 13537, 11014, 6946, 5436, 17184, 21906, 15293, 6817, 18576, 14894, 7603, 5894, 22773, 28318, 8114, 5490, 12257, 9023, 4294, 4243, 14771, 17301, 2406, 2821, 4927, 3297, 1425, 2022, 5616, 6148, 1455, 4561, 5266, 2564, 1261, 2068, 4646, 4342, 1866, 12075, 13344, 5962, 1595, 5922, 11985, 9766, 1999, 15641, 17277, 7683, 1857, 7895, 15531, 12494, 2813, 12166, 13021, 5711, 1858, 5719, 10926, 8510, 3571, 8133, 7344, 2482, 1828, 3305, 5343, 3096, 3643, 5197, 3386, 629, 1830, 2191, 2482, 736, 1798, 1818, 1253, 1047, 1012, 926, 981, 1181, 730, 802, 1027, 906, 643, 601, 803, 1004, 755, 1089, 969, 621, 649, 763, 847, 601, 684, 959, 811, 527, 657, 654, 614, 517, 823, 811, 643, 670, 845, 812, 684, 641, 749, 803, 731, 700, 756, 886, 827, 698, 649, 765, 824, 679, 624, 820, 894, 772, 680, 669, 627, 632, 608, 653, 708, 682, 780, 929, 895, 671, 597, 719, 850, 789, 885, 1154, 1135, 864, 759, 846, 911, 906, 1359, 1822, 1515, 1018, 1189, 1206, 893, 855, 1462, 2108, 1769, 1106, 1454, 1339, 945, 956, 1260, 1729, 1557, 979, 1132, 1039, 939, 1009, 1442, 2091, 1793, 1079, 1079, 1109, 1221, 1021, 2095, 2756, 2186, 1451, 1327, 1328, 1503, 1116, 1432, 1787, 1602, 1281, 1095, 925, 982, 879, 1198, 1321, 1361, 1245, 1178, 1270, 1110, 997, 1513, 1340, 1046, 791, 1495, 1602, 1024, 1203, 2050, 1463, 1603, 1276, 1580, 2230, 1157, 1327, 2161, 1448, 1516, 1356, 1366, 2194, 1165, 1323, 1187, 977, 906, 825, 871, 1240, 767, 694, 622, 600, 702, 615, 638, 753, 621, 534, 559, 550, 665, 621, 577, 630, 604, 591, 598, 576, 601, 606, 658, 616, 621, 581, 794, 694, 539, 674, 832, 758, 596, 691, 958, 719, 731, 756, 790, 843, 720, 892, 800, 682, 704, 720, 666, 674, 670, 791, 631, 686, 802, 684, 567, 545, 551, 605, 650, 748, 933, 811, 594, 646, 735, 760, 709, 895, 867, 722, 635, 666, 842, 771, 725, 820, 690, 694, 647, 656, 742, 639, 774, 724, 611, 631, 594, 631, 673, 615, 659, 695, 673, 673, 517, 579, 658, 670, 671, 679, 681, 654, 646, 660, 652, 606, 767, 682, 625, 693, 698, 667, 628, 709, 656, 589, 626, 602, 646, 630, 605, 782, 594, 651, 788, 696, 649, 630, 710, 799, 653, 777, 728, 671, 649, 613, 769, 790, 602, 761, 679, 616, 668, 723, 821, 686, 617, 652, 641, 536, 648, 660, 684, 622, 721, 753, 674, 692, 685, 606, 637, 627, 790, 870, 733, 793, 707, 761, 851, 736, 658, 765, 854, 729, 548, 726, 741, 646, 612, 675, 663, 672, 579, 648, 701, 652, 574, 593, 667, 638, 595, 623, 824, 729, 584, 604, 611, 553, 591, 649, 716, 719, 486, 638, 815, 709, 588, 662, 713, 567, 588, 602, 596, 627, 571, 523, 485, 539, 571, 568, 554, 616, 579, 553, 574, 517, 623, 676, 756, 717, 598, 657, 757, 605, 579, 765, 770, 610, 585, 696, 663, 504, 554, 625, 612, 553, 602, 701, 590, 504, 572, 599, 647, 560, 513, 588, 598, 648, 596, 608, 581, 553, 593, 623, 607, 611, 538, 615, 588, 576, 636, 560, 588, 606, 562, 539, 470, 577, 660, 576, 563, 562, 636, 572, 555, 699, 711, 666, 587, 532, 564, 738, 857, 775, 626, 710, 769, 653, 554, 908, 980, 650, 637, 687, 899, 845, 680, 745, 648, 531, 673, 652, 691, 691, 608, 599, 541, 521, 620, 606, 520, 584, 681, 735, 722, 627, 607, 666, 685, 590, 667, 785, 725, 672, 657, 720, 801, 638, 593, 598, 505, 579, 542, 573, 679, 615, 510, 582, 486, 443, 493, 555, 603, 516, 589, 758, 711, 491, 545, 703, 702, 623, 667, 634, 657, 624, 608, 669, 746, 723, 638, 656, 598, 523, 563, 587, 660, 673, 677, 824, 667, 575, 662, 749, 706, 566, 563, 693, 705, 704, 670, 665, 682, 615, 563, 688, 700, 591, 586, 600, 685, 613, 546, 646, 648, 597, 526, 574, 607, 569, 591, 605, 705, 700, 519, 500, 615, 696, 531, 658, 677, 622, 546, 591, 655, 591, 576, 658, 602, 502, 553, 622, 568, 462, 560, 529, 450, 412, 502, 461, 527, 566, 501, 484, 486, 477, 476, 494, 582, 638, 584, 594, 542, 528, 531, 532, 544, 571, 471, 523, 545, 464, 394, 496, 530, 510, 464, 399, 474, 428, 369, 462, 473, 449, 509, 453, 440, 482, 454, 482, 498, 517, 420, 479, 423, 354, 466, 511, 478, 457, 422, 518, 556, 400, 355, 386, 420, 441]"
0.5219208598136902,0.1835157424211502,0.1369122862815857,0.5290741920471191,0.07748919725418091,-0.09493137896060944,0.845781683921814,-0.5249524116516113,0.853729248046875,15.5,-0.3462815284729004,0.7196903228759766,29.25,-0.34041643142700195,0.7185459136962891,27.25,-0.31638383865356445,0.7764816284179688,20.5,-0.07691621780395508,0.4929542541503906,22.75,"[454, 526, 642, 670, 693, 663, 644, 529, 481, 565, 641, 661, 618, 595, 635, 572, 469, 507, 624, 629, 557, 504, 524, 586, 577, 551, 497, 528, 553, 536, 492, 492, 470, 495, 403, 375, 466, 544, 495, 405, 653, 547, 481, 508, 543, 539, 499, 569, 534, 552, 550, 514, 502, 552, 499, 427, 523, 530, 557, 573, 467, 533, 594, 474, 425, 515, 547, 483, 410, 411, 492, 468, 436, 553, 536, 499, 434, 504, 560, 477, 453, 545, 540, 573, 551, 488, 598, 597, 555, 579, 622, 602, 588, 573, 665, 682, 542, 589, 560, 486, 516, 560, 631, 615, 550, 606, 518, 478, 570, 604, 592, 523, 518, 515, 605, 603, 561, 542, 560, 594, 556, 527, 622, 614, 604, 581, 630, 614, 480, 515, 578, 587, 526, 548, 603, 575, 539, 595, 609, 484, 428, 539, 540, 508, 493, 563, 605, 500, 460, 601, 574, 463, 517, 534, 604, 578, 544, 548, 591, 591, 529, 537, 602, 660, 542, 490, 531, 514, 548, 543, 525, 610, 488, 512, 555, 452, 561, 512, 514, 566, 498, 514, 543, 544, 601, 590, 515, 525, 541, 627, 596, 527, 578, 558, 440, 465, 505, 547, 552, 518, 538, 529, 453, 579, 623, 602, 542, 550, 729, 771, 556, 572, 608, 672, 703, 576, 1208, 1447, 998, 675, 848, 1025, 963, 656, 1551, 1904, 1277, 725, 1050, 1336, 1182, 891, 1099, 1223, 973, 781, 857, 1128, 1070, 831, 874, 991, 983, 866, 816, 1108, 1199, 1054, 1390, 1339, 2097, 2283, 1443, 1552, 3396, 3301, 5720, 2703, 5788, 7511, 5258, 3338, 11664, 12642, 7825, 3685, 8195, 9755, 6932, 4411, 15645, 17147, 2693, 3298, 4995, 5071, 3268, 2792, 8141, 8046, 5747, 2845, 3911, 3235, 2635, 3451, 8404, 9591, 10671, 3785, 8876, 7537, 5754, 5823, 17432, 20093, 8632, 1366, 5563, 4840, 4741, 2957, 12319, 15205, 3269, 2340, 2674, 1728, 1574, 2053, 4811, 5453, 945, 2217, 2504, 1435, 654, 1511, 2820, 2458, 895, 2580, 2935, 1664, 757, 1928, 2886, 2161, 931, 1552, 1913, 1178, 767, 1649, 1717, 1248, 905, 1771, 2380, 1383, 826, 851, 2009, 2247, 795, 1241, 1466, 1008, 663, 1252, 1660, 1357, 1318, 1813, 1312, 711, 1056, 933, 956, 766, 1106, 1676, 1269, 645, 1025, 952, 1027, 846, 699, 1019, 882, 658, 681, 715, 785, 628, 654, 753, 816, 677, 656, 746, 764, 703, 578, 731, 826, 691, 722, 789, 749, 720, 705, 836, 881, 767, 951, 1084, 924, 802, 821, 933, 941, 825, 1137, 1278, 1012, 787, 752, 791, 771, 794, 978, 1073, 872, 723, 633, 672, 653, 758, 762, 876, 780, 652, 743, 809, 776, 780, 724, 756, 697, 671, 698, 667, 704, 750, 653, 666, 776, 787, 793, 739, 733, 585, 665, 791, 801, 813, 885, 1037, 1021, 819, 873, 967, 882, 750, 1175, 1512, 1211, 996, 1209, 1174, 951, 745, 1512, 2139, 1664, 981, 1386, 1357, 912, 760, 1731, 2366, 1835, 921, 1455, 1460, 934, 891, 1245, 1374, 1078, 985, 930, 716, 732, 887, 954, 1004, 1079, 1077, 843, 721, 865, 934, 1177, 1729, 2076, 1813, 1138, 1104, 1447, 1294, 1702, 2392, 2698, 2252, 1114, 1707, 2176, 1340, 1530, 1826, 1731, 1482, 735, 1547, 1616, 977, 874, 790, 895, 959, 802, 757, 707, 639, 638, 600, 717, 747, 606, 569, 573, 573, 552, 586, 612, 550, 549, 545, 539, 551, 639, 651, 672, 570, 553, 572, 621, 674, 670, 790, 965, 791, 579, 631, 869, 936, 653, 921, 1186, 922, 673, 739, 1074, 1058, 798, 835, 916, 848, 805, 709, 883, 976, 680, 654, 691, 791, 790, 851, 883, 843, 680, 705, 646, 743, 708, 720, 734, 715, 649, 799, 794, 722, 745, 782, 779, 609, 648, 761, 772, 706, 702, 666, 646, 619, 599, 657, 658, 622, 587, 507, 620, 622, 581, 703, 656, 552, 622, 662, 629, 572, 603, 677, 632, 597, 689, 642, 572, 518, 593, 591, 661, 685, 711, 635, 566, 594, 587, 537, 597, 700, 673, 554, 594, 616, 604, 512, 573, 720, 653, 548, 646, 692, 673, 775, 808, 725, 700, 653, 723, 672, 712, 927, 917, 755, 644, 634, 755, 621, 719, 775, 756, 625, 616, 631, 639, 691, 683, 670, 708, 644, 617, 657, 608, 606, 647, 621, 619, 567, 600, 725, 707, 592, 597, 651, 645, 525, 605, 777, 687, 595, 517, 587, 572, 497, 548, 658, 677, 553, 543, 640, 644, 557, 592, 721, 729, 585, 486, 613, 693, 591, 549, 602, 570, 474, 578, 560, 666, 684, 495, 576, 651, 605, 614, 584, 656, 637, 555, 538, 549, 616, 667, 601, 599, 718, 752, 688, 536, 560, 574, 626, 648, 657, 668, 616, 514, 557, 491, 662, 696, 577, 550, 558, 558, 542, 524, 587, 597, 529, 484, 560, 529, 445, 681, 656, 545, 537, 590, 642, 627, 644, 643, 671, 632, 594, 563, 581, 631, 618, 582, 572, 633, 646, 564, 586, 594, 567, 491, 497, 546, 570, 506, 550, 549, 534, 517, 601, 643, 593, 510, 528, 575, 508, 617, 693, 685, 557, 546, 552, 612, 589, 573, 682, 670, 546, 605, 623, 643, 590, 633, 690, 587, 510, 586, 645, 680, 630, 573, 663, 678, 634, 648, 638, 638, 628, 691, 654, 609, 676, 697, 596, 789, 881, 653, 617, 721, 739, 660, 704, 879, 914, 647, 540, 603, 740, 646, 603, 750, 805, 668, 643, 596, 622, 659, 685, 699, 622, 702, 622, 644, 655, 696, 760, 655, 644, 664, 611, 668, 649, 640, 646, 554, 632, 553, 521, 625, 639, 610, 582, 554, 620, 606, 472, 623, 683, 627, 575, 603, 704, 542, 591, 566, 592, 664, 624, 534, 583, 484, 670, 656, 508, 550, 666, 688, 554, 486, 499, 561, 562, 506, 561, 635, 564, 550, 494, 557, 544, 493, 537, 605, 588, 511, 436, 463, 489, 548, 477, 513, 553, 529, 490, 490, 643, 588, 473, 442, 506, 515, 445, 512, 526, 519, 506, 454, 469, 467, 491, 494, 457, 523, 522, 499, 442, 458, 565, 590, 534, 479, 616, 651, 563, 466, 537, 652, 596, 424, 519, 676, 643, 464, 407, 477, 490, 426, 530, 487, 435, 406, 408, 471, 451, 407, 477, 477, 471, 381, 457, 473, 419, 450, 462, 506, 472, 399, 449, 455, 393, 376, 467, 490, 398]"
0.5714687705039978,0.12008503824472427,0.0982857346534729,0.6010927557945251,-0.026686444878578186,-0.13929270207881927,0.8299391865730286,-0.8785048723220825,1.8572330474853516,15.5,-0.37053024768829346,0.7684707641601562,30.5,-0.286845326423645,0.7254123687744141,24.5,0.7325371503829956,1.3978958129882812,16.5,0.8218010663986206,1.3186454772949219,17.5,"[474, 599, 630, 608, 632, 604, 635, 600, 516, 704, 645, 654, 642, 605, 702, 556, 558, 546, 562, 592, 562, 501, 555, 606, 593, 580, 483, 551, 562, 554, 591, 581, 463, 557, 551, 518, 472, 555, 569, 469, 518, 532, 525, 545, 547, 472, 451, 562, 414, 415, 502, 522, 532, 439, 450, 519, 518, 472, 471, 604, 601, 549, 530, 524, 503, 433, 438, 560, 540, 498, 539, 511, 497, 464, 469, 551, 522, 475, 471, 521, 632, 531, 527, 581, 557, 466, 481, 582, 541, 541, 619, 569, 541, 472, 483, 585, 583, 542, 556, 570, 471, 506, 572, 600, 515, 623, 611, 530, 477, 510, 608, 588, 446, 591, 599, 565, 584, 601, 531, 517, 514, 516, 495, 549, 533, 440, 475, 527, 524, 520, 511, 575, 537, 465, 574, 580, 573, 579, 557, 591, 667, 643, 635, 562, 576, 642, 622, 600, 602, 629, 632, 559, 557, 548, 506, 512, 543, 498, 474, 503, 574, 440, 439, 426, 474, 492, 452, 522, 625, 519, 593, 564, 539, 553, 557, 665, 555, 489, 510, 544, 579, 543, 555, 563, 473, 611, 541, 443, 570, 605, 487, 442, 642, 689, 565, 517, 626, 726, 610, 521, 672, 621, 633, 602, 601, 663, 620, 603, 498, 562, 591, 592, 651, 685, 637, 506, 638, 675, 611, 553, 690, 656, 594, 581, 688, 843, 698, 536, 671, 688, 630, 599, 802, 935, 809, 546, 847, 871, 624, 652, 672, 733, 719, 696, 767, 832, 713, 565, 727, 699, 925, 914, 744, 775, 1254, 1262, 3595, 2619, 4521, 4910, 2964, 3382, 9107, 9169, 8151, 4104, 8219, 9808, 6615, 5674, 17558, 18614, 7039, 3062, 6397, 8285, 5466, 4901, 14573, 15448, 5360, 2190, 4822, 4240, 2988, 3658, 9894, 10780, 6350, 3215, 8001, 6190, 2853, 3505, 10902, 12711, 4357, 2532, 5657, 4378, 2016, 2266, 7226, 8543, 1141, 1935, 2198, 1717, 1122, 1594, 2603, 2221, 1164, 3626, 4291, 2460, 935, 2170, 3610, 2952, 1569, 6056, 7002, 3545, 1174, 3199, 6269, 5310, 2272, 10835, 12202, 5718, 1832, 5609, 11130, 9203, 2936, 11608, 12152, 5162, 2069, 6638, 12014, 9158, 2188, 6488, 6154, 2316, 1417, 4341, 6839, 4686, 1181, 2365, 1909, 877, 925, 2013, 2609, 1521, 981, 1162, 850, 710, 650, 956, 1060, 709, 717, 730, 648, 575, 587, 691, 689, 636, 627, 742, 812, 656, 555, 658, 713, 696, 558, 664, 729, 600, 655, 742, 620, 617, 665, 568, 595, 517, 624, 677, 542, 578, 606, 609, 676, 686, 591, 620, 659, 652, 576, 670, 704, 754, 590, 675, 740, 576, 682, 787, 811, 736, 730, 869, 877, 664, 821, 828, 796, 786, 972, 1002, 879, 751, 668, 686, 703, 736, 872, 896, 742, 646, 522, 532, 752, 730, 572, 507, 607, 648, 574, 691, 786, 720, 629, 493, 642, 724, 1105, 1472, 1133, 711, 1200, 1069, 741, 819, 2626, 4113, 3173, 916, 2562, 2601, 1270, 883, 3048, 5608, 4954, 1407, 3213, 3871, 2087, 989, 1751, 4166, 4262, 1533, 2102, 3135, 1938, 907, 1091, 1899, 1994, 1110, 1213, 1833, 1444, 805, 1802, 2061, 1948, 2397, 2099, 1411, 1772, 1750, 2918, 3785, 5545, 5570, 3241, 1665, 3319, 3046, 2367, 3553, 5777, 5524, 2639, 1789, 3233, 2502, 932, 1696, 2964, 2757, 1176, 1153, 1552, 1117, 759, 953, 1073, 950, 710, 833, 741, 650, 624, 578, 631, 652, 603, 679, 626, 528, 594, 617, 718, 710, 575, 713, 757, 685, 601, 792, 880, 747, 617, 745, 752, 668, 600, 788, 909, 763, 612, 710, 856, 780, 656, 709, 827, 661, 631, 655, 833, 887, 614, 846, 864, 690, 585, 728, 1022, 893, 728, 920, 995, 901, 706, 850, 1169, 976, 616, 727, 825, 755, 628, 741, 857, 711, 798, 914, 807, 663, 657, 700, 628, 614, 757, 837, 724, 639, 648, 666, 648, 600, 644, 744, 736, 648, 632, 661, 713, 666, 626, 591, 612, 684, 669, 583, 672, 739, 544, 560, 583, 710, 735, 567, 655, 716, 550, 587, 575, 571, 527, 565, 720, 681, 658, 733, 704, 597, 513, 590, 743, 750, 625, 762, 670, 570, 656, 625, 639, 648, 601, 564, 570, 571, 568, 576, 645, 681, 578, 572, 659, 662, 576, 660, 701, 688, 655, 680, 718, 633, 544, 694, 729, 714, 642, 873, 1006, 756, 653, 751, 972, 978, 739, 884, 1141, 899, 709, 730, 1045, 1202, 675, 853, 1042, 757, 560, 639, 905, 936, 660, 900, 1070, 789, 541, 696, 849, 801, 584, 679, 893, 722, 528, 515, 700, 755, 579, 650, 834, 649, 420, 609, 774, 776, 572, 576, 602, 594, 521, 534, 591, 646, 628, 666, 713, 623, 646, 695, 647, 606, 620, 664, 571, 647, 699, 650, 612, 629, 556, 592, 541, 619, 684, 591, 599, 654, 538, 525, 608, 607, 592, 643, 691, 680, 574, 673, 733, 719, 674, 728, 784, 699, 633, 701, 614, 660, 642, 659, 630, 599, 694, 730, 703, 630, 596, 691, 576, 514, 575, 752, 828, 646, 506, 659, 672, 548, 637, 733, 655, 558, 579, 635, 683, 564, 574, 668, 605, 530, 519, 559, 639, 558, 616, 666, 664, 629, 595, 630, 654, 590, 582, 688, 692, 701, 603, 631, 719, 627, 647, 693, 668, 655, 572, 705, 805, 667, 764, 683, 615, 504, 587, 622, 561, 688, 734, 652, 638, 546, 560, 614, 642, 722, 533, 534, 575, 621, 580, 480, 582, 621, 552, 616, 611, 689, 617, 536, 651, 601, 545, 524, 496, 576, 653, 691, 686, 530, 502, 666, 731, 534, 518, 667, 881, 783, 532, 593, 676, 543, 574, 673, 694, 692, 546, 530, 614, 626, 578, 612, 619, 577, 623, 611, 713, 802, 674, 600, 606, 619, 614, 707, 678, 651, 620, 567, 697, 706, 583, 774, 778, 636, 631, 563, 894, 879, 620, 655, 758, 686, 590, 605, 786, 856, 596, 588, 571, 667, 617, 580, 724, 722, 658, 456, 502, 623, 633, 635, 607, 682, 558, 493, 434, 518, 521, 472, 460, 490, 571, 511, 473, 540, 510, 527, 466, 446, 596, 485, 498, 610, 495, 399, 461, 651, 609, 418, 555, 604, 547, 580, 764, 808, 464, 523, 596, 537, 471, 554, 717, 660, 484, 631, 632, 549, 476, 538, 583, 521, 511, 521, 486, 476, 466, 474, 444, 513, 452, 435, 425, 426, 386, 456, 496, 451]"
0.5639503002166748,0.1202353835105896,0.17805679142475128,0.5120323896408081,0.0052647702395915985,0.02214708924293518,0.6227818131446838,-0.9150616526603699,1.0329723358154297,19.5,-0.9150616526603699,1.0451316833496094,26.0,-0.5160920023918152,0.8497238159179688,26.75,0.0797160267829895,0.6507396697998047,18.5,0.29271918535232544,0.9571552276611328,15.75,"[548, 509, 449, 506, 615, 505, 448, 516, 567, 520, 501, 649, 679, 578, 509, 581, 534, 468, 516, 557, 542, 520, 544, 551, 560, 599, 589, 566, 470, 459, 509, 524, 540, 459, 419, 417, 392, 383, 418, 434, 610, 598, 477, 450, 576, 540, 512, 482, 528, 512, 400, 470, 591, 586, 529, 457, 554, 511, 433, 441, 547, 523, 461, 486, 463, 452, 437, 483, 519, 487, 403, 425, 582, 555, 591, 562, 530, 542, 522, 578, 476, 601, 554, 529, 548, 514, 559, 503, 514, 690, 593, 603, 641, 599, 684, 578, 526, 610, 557, 534, 592, 584, 588, 558, 578, 576, 562, 616, 554, 489, 578, 605, 514, 480, 510, 585, 568, 469, 537, 578, 549, 550, 605, 537, 504, 569, 571, 559, 468, 490, 508, 486, 497, 506, 561, 554, 506, 501, 511, 524, 559, 516, 561, 615, 563, 577, 562, 556, 588, 523, 571, 593, 542, 574, 602, 611, 598, 584, 638, 615, 509, 585, 603, 577, 496, 580, 652, 575, 525, 615, 559, 513, 552, 561, 569, 500, 559, 521, 537, 583, 650, 573, 528, 592, 507, 457, 530, 625, 568, 486, 532, 569, 591, 582, 615, 540, 549, 533, 479, 544, 631, 647, 676, 622, 603, 644, 521, 573, 549, 504, 579, 624, 612, 552, 462, 560, 654, 543, 542, 668, 671, 528, 575, 667, 550, 595, 611, 627, 604, 580, 612, 592, 626, 831, 761, 582, 683, 768, 692, 567, 629, 658, 653, 550, 567, 716, 699, 586, 550, 703, 714, 622, 583, 639, 729, 610, 1511, 1974, 2732, 2560, 1359, 2281, 5043, 4663, 5081, 3571, 6245, 6230, 3981, 4383, 12071, 12403, 4975, 3135, 5486, 6075, 4060, 4009, 11270, 11701, 1618, 2380, 2535, 3651, 1906, 3023, 5512, 4342, 6729, 3205, 4767, 5791, 3738, 3969, 2269, 5481, 10984, 3907, 10887, 10576, 5176, 3596, 8601, 14464, 7811, 5315, 11356, 8961, 3532, 4141, 12014, 14680, 1623, 5581, 7489, 4795, 1555, 4272, 8398, 7389, 3042, 7882, 8340, 4507, 1350, 4740, 7508, 5365, 4747, 12589, 13071, 6318, 2135, 7503, 12028, 8764, 3973, 11974, 12687, 6094, 1698, 7818, 12499, 9139, 2966, 8277, 8735, 4394, 1059, 4188, 7099, 5326, 2372, 5344, 4923, 1972, 838, 1933, 3446, 2196, 1509, 2165, 1636, 876, 1080, 1821, 1788, 808, 847, 953, 1037, 722, 799, 1142, 999, 796, 611, 632, 544, 513, 625, 717, 633, 606, 542, 635, 672, 685, 598, 617, 746, 652, 681, 653, 645, 670, 641, 687, 650, 583, 795, 639, 586, 662, 700, 658, 512, 682, 642, 544, 593, 591, 668, 587, 599, 701, 658, 487, 584, 687, 585, 624, 614, 671, 708, 580, 622, 715, 681, 662, 565, 605, 694, 655, 635, 705, 747, 699, 622, 655, 690, 725, 815, 727, 597, 682, 763, 753, 712, 758, 872, 816, 599, 584, 736, 747, 884, 1204, 1151, 863, 827, 849, 861, 832, 2955, 4398, 3215, 973, 2439, 2067, 1179, 1163, 5900, 8558, 6025, 1725, 4570, 3991, 1765, 1798, 5021, 7039, 5003, 1710, 3796, 3435, 1603, 1659, 1781, 2460, 1988, 1002, 1307, 1460, 1071, 992, 896, 1182, 1152, 1106, 771, 973, 1230, 803, 2630, 3825, 3285, 2077, 1153, 1546, 2259, 1327, 3333, 4443, 3437, 1760, 1282, 1857, 2157, 1386, 1990, 2183, 1430, 934, 1028, 975, 870, 1046, 803, 858, 775, 626, 709, 594, 569, 722, 622, 696, 731, 649, 591, 689, 692, 699, 570, 715, 660, 529, 652, 700, 676, 678, 598, 614, 607, 569, 610, 579, 618, 598, 605, 630, 639, 701, 710, 555, 546, 570, 592, 800, 885, 804, 690, 686, 700, 693, 596, 848, 964, 777, 613, 584, 754, 744, 724, 868, 926, 745, 663, 586, 700, 795, 661, 754, 790, 702, 587, 624, 661, 633, 639, 674, 786, 825, 748, 695, 642, 590, 684, 696, 584, 566, 590, 611, 638, 606, 723, 716, 628, 685, 698, 671, 767, 831, 785, 623, 719, 808, 660, 647, 830, 831, 820, 603, 714, 854, 632, 717, 793, 760, 714, 570, 705, 729, 618, 640, 681, 733, 596, 534, 742, 751, 664, 597, 635, 680, 562, 616, 648, 588, 628, 700, 647, 546, 694, 634, 569, 585, 602, 632, 681, 653, 752, 731, 655, 722, 723, 718, 657, 659, 671, 767, 831, 826, 719, 733, 749, 679, 630, 762, 848, 715, 612, 734, 804, 749, 664, 732, 773, 766, 672, 780, 790, 751, 711, 773, 720, 745, 626, 686, 808, 727, 667, 786, 663, 575, 646, 580, 676, 656, 688, 776, 733, 600, 714, 649, 746, 676, 576, 761, 766, 590, 592, 611, 757, 757, 685, 747, 856, 669, 617, 593, 799, 873, 643, 621, 694, 749, 695, 662, 803, 796, 519, 525, 603, 623, 651, 703, 710, 626, 593, 631, 614, 621, 610, 670, 686, 544, 570, 573, 489, 555, 577, 549, 559, 498, 608, 585, 505, 497, 574, 596, 500, 510, 568, 591, 601, 638, 578, 583, 504, 475, 610, 645, 630, 665, 621, 657, 661, 535, 657, 758, 695, 593, 668, 634, 638, 695, 732, 692, 595, 583, 612, 625, 647, 713, 636, 730, 627, 499, 560, 625, 619, 619, 608, 590, 610, 558, 615, 612, 650, 706, 618, 569, 617, 599, 596, 571, 707, 760, 526, 576, 605, 540, 591, 603, 644, 609, 564, 668, 637, 676, 655, 692, 689, 567, 562, 560, 593, 664, 663, 636, 729, 729, 700, 419, 525, 696, 736, 607, 692, 893, 672, 529, 568, 581, 626, 659, 570, 678, 624, 522, 550, 573, 610, 498, 514, 673, 758, 548, 605, 642, 681, 516, 599, 768, 636, 562, 507, 579, 602, 496, 538, 616, 543, 596, 609, 630, 638, 539, 541, 611, 507, 529, 623, 607, 524, 577, 674, 633, 641, 477, 602, 648, 502, 511, 707, 773, 663, 566, 551, 588, 550, 533, 558, 574, 711, 825, 698, 574, 627, 647, 599, 487, 640, 639, 578, 594, 632, 608, 646, 591, 550, 558, 493, 535, 552, 499, 501, 507, 492, 512, 449, 414, 484, 502, 450, 421, 504, 558, 519, 492, 581, 628, 553, 447, 486, 485, 574, 521, 570, 651, 581, 507, 654, 517, 511, 527, 549, 485, 526, 691, 699, 503, 434, 461, 499, 423, 562, 772, 582, 535, 521, 496, 460, 489, 586, 639, 454, 547, 616, 495, 421, 487, 558, 557, 439, 471, 514, 454, 421, 450, 454, 479]"
0.5309780836105347,0.16011987626552582,0.22848674654960632,0.3545236587524414,0.07430008053779602,0.10331155359745026,0.33525049686431885,-0.2632306218147278,0.5885124206542969,17.5,-0.15594226121902466,0.5548954010009766,-31.25,-0.05394679307937622,0.4284381866455078,-27.25,-0.003163635730743408,0.3872394561767578,-31.0,0.4302813410758972,1.5529632568359375,16.25,"[552, 569, 623, 621, 566, 620, 623, 573, 582, 607, 607, 628, 678, 631, 635, 559, 484, 490, 508, 511, 581, 530, 571, 605, 566, 474, 501, 521, 562, 564, 628, 641, 522, 568, 503, 468, 506, 557, 574, 517, 616, 569, 557, 595, 549, 523, 580, 642, 491, 519, 520, 516, 523, 477, 491, 540, 567, 515, 586, 593, 559, 450, 475, 624, 446, 480, 557, 472, 428, 468, 474, 475, 528, 471, 526, 516, 525, 475, 537, 577, 507, 613, 639, 521, 554, 561, 578, 523, 503, 569, 539, 505, 552, 593, 533, 497, 519, 516, 547, 435, 466, 553, 475, 453, 515, 546, 613, 491, 511, 601, 552, 515, 502, 489, 633, 600, 585, 536, 525, 595, 516, 490, 596, 651, 553, 487, 523, 619, 560, 528, 416, 546, 572, 502, 525, 570, 513, 467, 552, 586, 570, 559, 592, 559, 576, 582, 646, 639, 545, 577, 538, 587, 542, 598, 577, 611, 537, 504, 546, 506, 524, 579, 561, 515, 479, 532, 510, 445, 485, 606, 609, 535, 590, 588, 509, 438, 574, 597, 567, 547, 632, 674, 581, 533, 565, 570, 581, 609, 628, 582, 582, 547, 520, 610, 585, 580, 570, 529, 574, 518, 601, 616, 581, 627, 622, 549, 552, 599, 602, 604, 649, 653, 608, 588, 556, 573, 547, 546, 574, 564, 503, 590, 644, 503, 582, 544, 508, 484, 495, 532, 479, 509, 796, 915, 810, 637, 638, 671, 624, 625, 1025, 1156, 1002, 753, 753, 868, 947, 764, 1111, 1281, 1103, 808, 817, 1005, 1097, 863, 817, 905, 849, 679, 784, 866, 979, 984, 782, 609, 730, 701, 683, 597, 653, 827, 1002, 633, 771, 925, 871, 561, 941, 1227, 2732, 1071, 2817, 2582, 1653, 1036, 3176, 4330, 13716, 7216, 18390, 14137, 6505, 5470, 21814, 26869, 21572, 15390, 33379, 24544, 10297, 11644, 39509, 46289, 13330, 13058, 24049, 16635, 6459, 10211, 29039, 31940, 3585, 4037, 5960, 3811, 1690, 3892, 8783, 8805, 1512, 3007, 2495, 1162, 904, 2460, 3156, 1655, 2266, 2114, 3897, 2878, 1601, 2128, 2545, 3573, 2106, 7058, 8134, 3907, 2195, 3674, 5104, 4637, 5461, 12757, 12025, 4312, 3166, 4781, 6663, 3724, 4517, 9760, 9107, 3556, 2312, 4121, 6121, 3943, 1370, 2489, 2202, 1041, 951, 1673, 2139, 1356, 588, 829, 849, 700, 608, 691, 817, 685, 707, 934, 788, 586, 650, 742, 902, 780, 773, 1092, 830, 562, 750, 1014, 1044, 749, 712, 905, 808, 626, 650, 763, 820, 670, 604, 746, 805, 667, 560, 521, 615, 697, 630, 624, 776, 641, 617, 625, 684, 749, 565, 564, 722, 667, 621, 612, 660, 660, 604, 550, 662, 681, 617, 671, 740, 664, 634, 565, 582, 687, 667, 616, 584, 613, 610, 604, 600, 663, 635, 579, 668, 678, 606, 793, 774, 667, 630, 786, 750, 589, 770, 1056, 1122, 731, 854, 1291, 1163, 707, 1400, 2235, 1947, 850, 1757, 2144, 1371, 818, 2670, 4356, 3568, 1098, 2997, 3240, 1649, 1086, 3047, 4856, 3678, 954, 3030, 2938, 1258, 1022, 2094, 2858, 1989, 813, 1688, 1410, 1028, 992, 1203, 1183, 1151, 1208, 978, 942, 1069, 1062, 2083, 2250, 2939, 2790, 1668, 1265, 1626, 1983, 3071, 3467, 4168, 3800, 2448, 1778, 2003, 2545, 1746, 2291, 2965, 2543, 1580, 1220, 1252, 1386, 742, 976, 1346, 1171, 815, 724, 649, 806, 679, 778, 911, 735, 618, 635, 627, 658, 548, 600, 615, 584, 597, 573, 548, 553, 643, 631, 497, 605, 688, 670, 694, 607, 670, 735, 557, 510, 582, 612, 657, 651, 763, 978, 799, 553, 485, 633, 644, 584, 815, 913, 833, 683, 649, 770, 722, 727, 725, 795, 634, 697, 764, 786, 648, 577, 727, 667, 591, 705, 728, 647, 736, 746, 700, 681, 609, 699, 633, 624, 715, 729, 619, 653, 615, 657, 644, 634, 573, 591, 633, 741, 740, 705, 751, 708, 585, 602, 608, 821, 946, 783, 649, 659, 690, 695, 580, 737, 731, 653, 636, 602, 595, 562, 539, 551, 585, 558, 653, 716, 522, 516, 654, 657, 620, 622, 696, 588, 547, 603, 755, 656, 697, 780, 676, 582, 648, 700, 637, 656, 701, 735, 648, 666, 745, 673, 693, 712, 710, 624, 642, 658, 723, 757, 761, 741, 755, 711, 629, 724, 744, 747, 731, 708, 670, 633, 565, 724, 758, 612, 579, 857, 822, 647, 609, 779, 880, 723, 670, 1029, 992, 713, 597, 842, 1013, 863, 679, 1040, 1136, 862, 614, 885, 1100, 931, 647, 737, 919, 863, 670, 654, 800, 822, 682, 672, 809, 773, 736, 660, 675, 671, 526, 571, 726, 679, 594, 553, 629, 660, 555, 607, 696, 640, 592, 628, 627, 633, 562, 604, 669, 558, 586, 675, 584, 531, 589, 567, 558, 565, 539, 559, 629, 620, 632, 543, 605, 605, 551, 576, 648, 711, 589, 604, 607, 633, 641, 631, 604, 571, 583, 639, 714, 632, 574, 650, 654, 664, 620, 626, 625, 628, 572, 608, 682, 639, 624, 582, 524, 585, 664, 637, 725, 708, 727, 658, 800, 744, 668, 644, 887, 1008, 702, 534, 638, 691, 665, 623, 633, 781, 492, 532, 603, 557, 493, 580, 636, 630, 771, 525, 690, 722, 618, 518, 691, 858, 903, 553, 652, 767, 742, 646, 739, 971, 691, 567, 601, 641, 690, 608, 693, 799, 496, 615, 612, 529, 566, 586, 626, 591, 569, 590, 636, 664, 527, 573, 653, 625, 582, 599, 653, 743, 685, 590, 740, 725, 646, 689, 593, 583, 582, 531, 642, 646, 601, 688, 645, 588, 568, 535, 655, 648, 712, 670, 668, 703, 628, 581, 612, 709, 699, 526, 698, 744, 707, 719, 720, 816, 691, 597, 666, 703, 604, 588, 614, 672, 604, 575, 728, 769, 626, 630, 609, 608, 506, 561, 558, 584, 546, 503, 561, 564, 592, 565, 538, 551, 508, 488, 513, 558, 646, 551, 493, 514, 580, 578, 559, 671, 530, 634, 596, 503, 579, 592, 604, 584, 469, 725, 734, 608, 585, 568, 741, 666, 494, 782, 780, 635, 577, 594, 782, 657, 527, 563, 534, 554, 535, 469, 498, 516, 517, 510, 558, 597, 523, 570, 619, 610, 564, 502, 643, 604, 569, 566, 799, 864, 506, 549, 661, 623, 602, 631, 862, 849, 382, 508, 563, 447, 427, 512, 531, 464, 535, 546, 515, 501, 474, 459, 492, 457]"
0.5424737930297852,0.15778830647468567,0.11950330436229706,0.3137512803077698,0.02690766006708145,-0.10474248230457306,0.20834927260875702,-0.9283434152603149,2.0765304565429688,19.0,-0.29777395725250244,1.602029800415039,16.5,-0.21451818943023682,0.6445884704589844,27.75,-0.20922529697418213,0.5564689636230469,23.0,0.3013242483139038,0.0,23.5,"[495, 548, 572, 623, 646, 616, 572, 552, 504, 573, 551, 580, 599, 628, 609, 515, 558, 520, 640, 658, 609, 541, 628, 646, 643, 541, 569, 613, 599, 525, 525, 632, 561, 516, 575, 521, 488, 485, 553, 592, 558, 555, 549, 506, 474, 500, 593, 605, 514, 509, 591, 476, 391, 562, 589, 540, 496, 533, 610, 544, 458, 476, 567, 542, 483, 537, 596, 546, 490, 507, 586, 498, 522, 636, 651, 655, 614, 616, 564, 504, 485, 567, 656, 599, 594, 569, 531, 514, 503, 588, 598, 491, 512, 515, 509, 517, 471, 542, 578, 465, 526, 525, 390, 426, 591, 607, 606, 531, 593, 611, 499, 500, 517, 528, 584, 509, 529, 577, 549, 576, 524, 529, 618, 545, 548, 566, 541, 580, 588, 595, 585, 503, 546, 518, 614, 622, 666, 569, 567, 561, 600, 551, 570, 686, 621, 621, 597, 521, 652, 544, 452, 552, 635, 604, 729, 643, 558, 605, 475, 529, 527, 532, 576, 614, 509, 557, 526, 552, 515, 584, 694, 697, 618, 638, 665, 671, 563, 668, 575, 470, 549, 680, 569, 484, 610, 646, 565, 464, 530, 662, 676, 622, 597, 565, 615, 508, 493, 620, 617, 583, 573, 521, 527, 471, 536, 584, 457, 468, 636, 522, 460, 582, 634, 640, 556, 583, 552, 598, 559, 600, 659, 636, 496, 529, 529, 635, 569, 496, 585, 574, 459, 438, 598, 595, 579, 589, 601, 617, 582, 511, 602, 467, 491, 567, 635, 570, 479, 603, 700, 739, 707, 596, 639, 588, 628, 700, 989, 1174, 1275, 935, 901, 714, 1505, 1610, 1472, 1233, 1670, 1330, 1134, 1068, 2397, 2643, 930, 889, 1003, 873, 751, 800, 1318, 1379, 1145, 794, 839, 1013, 993, 677, 790, 1214, 4933, 1117, 3975, 3794, 3222, 1080, 5523, 7719, 9073, 2725, 8409, 6874, 5681, 2782, 13228, 16492, 5757, 2258, 5212, 5090, 3590, 3386, 10530, 11712, 2007, 2456, 3102, 2488, 1433, 1756, 2442, 2469, 1685, 3576, 5140, 3332, 1147, 2179, 4883, 4911, 1109, 2623, 3216, 1597, 901, 1734, 3638, 3416, 4250, 10284, 12405, 6680, 1729, 4565, 11431, 11111, 6417, 19698, 22504, 11152, 2759, 7505, 18898, 17602, 3076, 13557, 15396, 7175, 1505, 4569, 12375, 11461, 1989, 4254, 4182, 1892, 1320, 2037, 3237, 2690, 2632, 4946, 4066, 1173, 1438, 2152, 2830, 1230, 1734, 3003, 2422, 904, 950, 1267, 1678, 881, 1147, 1426, 1052, 692, 751, 825, 805, 583, 871, 842, 678, 637, 669, 688, 562, 698, 694, 748, 731, 665, 611, 614, 577, 663, 683, 675, 679, 707, 599, 540, 608, 768, 635, 626, 693, 629, 628, 656, 638, 675, 615, 591, 664, 564, 586, 657, 671, 687, 554, 498, 569, 613, 552, 595, 629, 575, 525, 479, 590, 649, 582, 502, 555, 598, 593, 640, 641, 570, 554, 551, 604, 588, 732, 771, 755, 633, 648, 741, 676, 541, 1148, 1935, 1693, 725, 982, 1078, 879, 674, 2894, 5141, 4347, 1219, 2501, 2713, 1529, 833, 3129, 6458, 6085, 1829, 2981, 4063, 2309, 907, 1876, 4335, 4392, 1547, 2302, 3481, 2106, 866, 1181, 1547, 1289, 850, 1601, 1727, 1130, 880, 1486, 1546, 2167, 2318, 1383, 770, 1401, 1288, 1889, 2769, 3906, 3456, 1574, 1062, 2113, 1782, 1516, 2344, 3280, 2785, 1274, 1042, 1840, 1582, 882, 1013, 1303, 1198, 793, 783, 983, 910, 702, 602, 696, 738, 717, 779, 737, 777, 662, 573, 770, 872, 722, 717, 645, 713, 694, 720, 722, 790, 662, 608, 627, 596, 714, 849, 845, 737, 642, 692, 714, 655, 753, 933, 947, 734, 704, 804, 785, 689, 619, 899, 953, 665, 588, 741, 944, 823, 614, 868, 1074, 756, 634, 722, 1062, 1053, 764, 802, 923, 759, 834, 764, 826, 969, 768, 963, 821, 713, 828, 838, 924, 799, 708, 844, 814, 768, 694, 706, 902, 782, 687, 807, 699, 656, 585, 646, 812, 699, 685, 651, 650, 598, 571, 556, 599, 700, 685, 652, 867, 821, 540, 642, 689, 796, 786, 656, 795, 697, 563, 694, 647, 746, 799, 758, 726, 658, 680, 822, 638, 630, 630, 653, 630, 572, 651, 700, 661, 607, 708, 670, 585, 613, 674, 773, 783, 674, 714, 674, 644, 656, 670, 670, 590, 639, 718, 716, 674, 772, 691, 652, 721, 780, 782, 686, 653, 719, 646, 600, 627, 703, 644, 658, 674, 599, 553, 647, 746, 686, 481, 527, 657, 633, 573, 585, 693, 645, 566, 660, 819, 693, 564, 574, 753, 803, 552, 708, 838, 625, 484, 560, 755, 692, 596, 782, 777, 645, 627, 642, 750, 664, 656, 658, 674, 677, 665, 555, 680, 710, 654, 650, 700, 677, 634, 580, 762, 763, 607, 663, 745, 734, 675, 656, 791, 766, 511, 632, 773, 760, 536, 489, 671, 685, 557, 572, 660, 630, 481, 484, 586, 611, 499, 628, 664, 563, 530, 589, 575, 495, 590, 672, 639, 535, 579, 605, 518, 506, 585, 630, 607, 565, 620, 639, 624, 571, 603, 752, 805, 627, 572, 634, 730, 651, 556, 878, 979, 701, 560, 649, 839, 784, 614, 979, 1107, 762, 676, 754, 909, 878, 742, 1104, 1263, 1040, 695, 666, 980, 968, 653, 794, 897, 866, 682, 708, 869, 806, 788, 755, 723, 691, 666, 643, 785, 785, 705, 768, 723, 642, 668, 789, 893, 755, 678, 620, 515, 592, 683, 687, 651, 714, 637, 605, 526, 630, 686, 682, 684, 640, 534, 590, 640, 661, 644, 701, 820, 704, 597, 527, 619, 650, 615, 696, 722, 708, 599, 514, 462, 478, 630, 631, 545, 585, 639, 604, 706, 605, 598, 579, 619, 756, 641, 694, 690, 718, 655, 600, 747, 799, 667, 625, 623, 731, 683, 605, 641, 669, 662, 655, 602, 646, 652, 623, 648, 715, 548, 596, 537, 455, 513, 552, 585, 579, 552, 566, 545, 585, 590, 494, 517, 572, 525, 670, 615, 637, 579, 542, 571, 542, 478, 603, 583, 505, 446, 579, 723, 560, 410, 516, 461, 459, 469, 532, 623, 534, 498, 568, 570, 492, 556, 603, 576, 602, 484, 482, 536, 527, 491, 512, 657, 652, 421, 434, 503, 503, 392, 457, 551, 536, 517, 542, 548, 427, 367, 419, 489, 556, 543, 557, 516, 453, 480, 482, 513, 517, 522, 521, 520, 428, 455, 468, 498, 491, 496, 406, 436, 457, 474, 477, 415, 484]"
0.49442723393440247,0.1592077612876892,0.1309897005558014,0.11688020825386047,-0.003676995635032654,-0.09948963671922684,-0.10290302336215973,-0.9488699436187744,1.2901782989501953,18.0,0.05120062828063965,0.27179718017578125,17.25,0.15376830101013184,0.0457763671875,17.0,0.2581956386566162,-0.22673606872558594,17.75,0.34459853172302246,-0.10313987731933594,23.25,"[518, 568, 579, 543, 501, 544, 577, 568, 506, 549, 595, 601, 566, 513, 561, 592, 537, 562, 546, 571, 549, 550, 568, 543, 538, 449, 531, 554, 457, 474, 535, 533, 540, 447, 497, 585, 613, 532, 522, 651, 535, 517, 486, 496, 515, 509, 545, 594, 544, 543, 537, 514, 533, 469, 526, 599, 556, 593, 582, 507, 592, 591, 508, 506, 593, 547, 513, 497, 573, 542, 445, 494, 522, 583, 517, 524, 556, 511, 474, 490, 526, 505, 570, 581, 570, 568, 573, 531, 561, 538, 545, 501, 528, 548, 517, 546, 610, 528, 476, 573, 582, 488, 525, 606, 590, 511, 537, 584, 585, 517, 591, 680, 544, 464, 495, 556, 567, 559, 471, 536, 476, 491, 539, 541, 586, 558, 471, 508, 458, 497, 481, 502, 553, 497, 498, 600, 481, 496, 447, 530, 561, 510, 516, 520, 623, 728, 582, 513, 572, 539, 555, 534, 484, 649, 644, 534, 485, 592, 692, 572, 465, 481, 583, 516, 466, 475, 498, 529, 548, 484, 477, 559, 572, 513, 494, 563, 471, 470, 574, 589, 522, 564, 589, 553, 544, 531, 580, 600, 540, 567, 616, 574, 532, 545, 553, 531, 499, 602, 602, 528, 510, 496, 573, 589, 526, 623, 620, 574, 509, 462, 593, 595, 620, 575, 600, 597, 489, 499, 507, 448, 537, 613, 515, 487, 571, 547, 518, 506, 601, 540, 473, 505, 584, 539, 602, 600, 541, 550, 504, 578, 570, 624, 599, 606, 639, 609, 509, 491, 538, 522, 566, 585, 608, 651, 639, 619, 750, 626, 729, 675, 686, 581, 841, 1004, 1020, 963, 1211, 1083, 887, 733, 1285, 1549, 843, 939, 1078, 926, 807, 815, 1115, 1094, 728, 755, 745, 754, 753, 717, 806, 787, 2378, 1564, 1151, 1707, 1435, 1439, 2098, 2511, 4774, 2025, 3200, 4363, 2839, 1721, 2845, 4882, 3870, 2336, 4001, 4203, 2189, 1315, 2176, 3965, 3389, 4197, 5650, 3821, 1520, 2303, 5010, 5773, 2325, 4325, 6210, 4064, 1346, 2365, 5570, 5849, 1111, 2317, 3148, 2028, 898, 1301, 2727, 2751, 1920, 4991, 4653, 2079, 1439, 3008, 4488, 2686, 5053, 5476, 3983, 2123, 2533, 2819, 3492, 3617, 5852, 9806, 11354, 6526, 2564, 6074, 11204, 10692, 5337, 15686, 16055, 6971, 3061, 7742, 13808, 10418, 4260, 10622, 9946, 3684, 2551, 4411, 7482, 4735, 2255, 3914, 3341, 1386, 1439, 1555, 2127, 1378, 1623, 1783, 1372, 923, 1009, 945, 848, 1046, 1075, 1372, 1021, 714, 819, 797, 810, 738, 739, 1116, 898, 577, 609, 776, 952, 766, 669, 917, 921, 686, 553, 763, 1012, 794, 636, 578, 689, 690, 583, 618, 780, 838, 682, 500, 589, 666, 563, 554, 642, 720, 686, 602, 627, 623, 545, 593, 625, 671, 656, 727, 773, 651, 567, 584, 625, 644, 707, 891, 868, 713, 700, 850, 730, 559, 779, 953, 921, 683, 834, 965, 753, 558, 1442, 1943, 1430, 768, 1488, 1448, 835, 662, 3074, 4443, 3217, 1094, 2597, 2393, 1280, 1126, 2889, 4828, 4117, 1225, 2579, 2955, 1730, 952, 1322, 2945, 3167, 1407, 1915, 2535, 1228, 1012, 2412, 2165, 1471, 1341, 1629, 1844, 1232, 1691, 2056, 2043, 1165, 1038, 1267, 1390, 1056, 1203, 1251, 1460, 1227, 1155, 756, 1110, 1300, 955, 1543, 1762, 1585, 1526, 1005, 1249, 1619, 1136, 1324, 1402, 1355, 1297, 1026, 994, 1276, 1067, 736, 594, 723, 784, 665, 645, 662, 744, 667, 573, 575, 575, 598, 692, 616, 644, 759, 615, 549, 678, 670, 675, 670, 678, 572, 600, 502, 571, 627, 626, 641, 593, 492, 594, 662, 603, 639, 653, 614, 629, 549, 617, 619, 519, 651, 639, 558, 594, 581, 598, 641, 612, 548, 512, 585, 566, 589, 688, 756, 790, 570, 703, 803, 663, 746, 904, 854, 677, 606, 809, 770, 571, 854, 993, 768, 606, 754, 809, 737, 671, 690, 869, 758, 627, 732, 758, 708, 655, 811, 816, 734, 642, 817, 745, 654, 741, 659, 692, 701, 602, 687, 690, 620, 648, 528, 681, 621, 509, 676, 670, 573, 530, 540, 638, 623, 567, 707, 668, 602, 536, 550, 684, 608, 590, 678, 633, 714, 594, 634, 674, 619, 553, 549, 620, 703, 716, 723, 665, 655, 538, 468, 541, 665, 758, 676, 576, 580, 531, 582, 635, 717, 759, 652, 628, 649, 635, 620, 722, 802, 724, 665, 738, 710, 647, 568, 605, 685, 652, 653, 764, 719, 581, 569, 678, 712, 709, 654, 687, 743, 603, 567, 733, 699, 643, 760, 671, 689, 705, 663, 728, 743, 742, 721, 714, 755, 687, 592, 782, 848, 774, 602, 560, 618, 640, 558, 636, 717, 651, 632, 628, 582, 568, 498, 552, 540, 542, 679, 706, 687, 548, 512, 507, 599, 666, 701, 704, 646, 581, 510, 570, 613, 670, 616, 655, 683, 536, 606, 579, 563, 602, 591, 713, 644, 586, 567, 595, 643, 603, 591, 796, 741, 660, 601, 609, 709, 633, 700, 702, 633, 609, 602, 609, 629, 564, 569, 612, 664, 613, 506, 627, 680, 601, 554, 767, 849, 663, 506, 623, 775, 677, 560, 669, 834, 763, 576, 627, 652, 624, 627, 691, 866, 839, 670, 707, 758, 728, 720, 679, 793, 809, 617, 637, 860, 888, 758, 863, 876, 713, 643, 708, 715, 706, 736, 920, 900, 681, 592, 724, 736, 613, 640, 779, 859, 706, 524, 573, 725, 626, 579, 676, 854, 762, 556, 571, 661, 647, 628, 564, 666, 767, 619, 523, 619, 655, 707, 542, 661, 772, 577, 512, 646, 696, 698, 754, 827, 772, 569, 644, 784, 767, 632, 670, 653, 647, 649, 681, 700, 672, 673, 713, 649, 676, 682, 583, 646, 598, 552, 652, 569, 569, 544, 515, 569, 490, 584, 536, 461, 528, 532, 468, 523, 524, 573, 584, 505, 538, 472, 510, 620, 579, 569, 751, 655, 543, 557, 683, 698, 571, 504, 675, 660, 576, 561, 618, 613, 455, 549, 611, 510, 486, 495, 592, 576, 425, 533, 614, 531, 524, 473, 544, 648, 560, 626, 625, 480, 542, 581, 578, 663, 655, 533, 520, 475, 510, 506, 522, 607, 605, 439, 493, 468, 421, 483, 507, 535, 510, 390, 438, 491, 433, 419, 417, 524, 486, 405, 459, 558, 477, 368, 379, 523, 565, 398, 443, 536, 474, 364, 410, 519, 516, 533, 507, 459, 458, 471, 516, 387, 424]"
0.5868889689445496,0.3569015860557556,-0.25949862599372864,0.3221167027950287,0.3135124444961548,-0.6014913320541382,0.18965069949626923,-0.8165757656097412,0.8913516998291016,16.0,-0.46466994285583496,0.7833480834960938,18.0,0.1268465518951416,-0.9191036224365234,23.5,0.2126772403717041,-0.8068084716796875,19.0,0.35401177406311035,0.5929470062255859,16.0,"[545, 565, 532, 524, 485, 530, 532, 565, 487, 541, 569, 550, 503, 579, 641, 576, 514, 505, 604, 611, 538, 531, 570, 544, 493, 507, 606, 631, 476, 483, 570, 563, 506, 503, 586, 582, 437, 477, 596, 596, 629, 581, 511, 513, 565, 506, 498, 612, 466, 513, 416, 474, 572, 576, 548, 534, 461, 479, 467, 463, 492, 491, 504, 497, 492, 500, 470, 449, 461, 520, 541, 472, 547, 529, 511, 548, 543, 585, 515, 481, 461, 422, 485, 497, 460, 496, 510, 478, 475, 482, 489, 467, 497, 487, 451, 455, 466, 538, 557, 522, 489, 483, 466, 447, 584, 577, 560, 577, 524, 502, 565, 541, 514, 611, 611, 517, 490, 562, 558, 506, 519, 598, 567, 464, 499, 578, 564, 548, 460, 567, 588, 497, 470, 573, 590, 465, 586, 623, 638, 557, 480, 590, 584, 506, 654, 701, 615, 538, 669, 597, 566, 523, 635, 640, 555, 517, 601, 601, 582, 555, 645, 638, 583, 539, 607, 566, 551, 617, 500, 580, 597, 521, 450, 526, 543, 538, 453, 564, 598, 503, 477, 537, 638, 611, 489, 543, 627, 490, 512, 569, 518, 526, 518, 545, 545, 466, 483, 515, 518, 551, 545, 564, 536, 496, 511, 486, 481, 494, 550, 567, 547, 556, 560, 418, 479, 518, 426, 512, 543, 477, 452, 484, 479, 439, 562, 553, 519, 593, 515, 469, 482, 516, 570, 567, 541, 568, 597, 526, 494, 573, 572, 515, 533, 647, 668, 589, 485, 572, 614, 510, 521, 653, 679, 507, 454, 628, 1059, 537, 895, 914, 833, 593, 993, 1421, 2086, 841, 1852, 1628, 1415, 881, 2511, 3348, 2509, 961, 2313, 1920, 1558, 881, 3252, 4219, 1786, 901, 1578, 1327, 912, 730, 2087, 2758, 1260, 815, 854, 737, 617, 691, 696, 1189, 1978, 1685, 1811, 1422, 1178, 1491, 1297, 1860, 2070, 2064, 2553, 2265, 1527, 1631, 1413, 2088, 1277, 1898, 2386, 2066, 1295, 1153, 1308, 1397, 758, 1260, 1383, 1153, 778, 1002, 1221, 930, 965, 1301, 1119, 820, 766, 820, 937, 813, 869, 2621, 3139, 1851, 717, 1258, 1429, 1356, 1414, 6820, 7937, 4026, 962, 2748, 4898, 4243, 1709, 10041, 11468, 5662, 1134, 3842, 8260, 6946, 2424, 10602, 11431, 5195, 1648, 4176, 8446, 6513, 1807, 5465, 5490, 2244, 1327, 2426, 3842, 2540, 837, 1685, 1620, 824, 738, 1022, 981, 738, 839, 1765, 1626, 733, 709, 1011, 1309, 942, 701, 1073, 1014, 590, 564, 808, 960, 692, 538, 609, 632, 565, 530, 552, 639, 621, 612, 659, 583, 612, 599, 532, 607, 671, 599, 629, 603, 638, 575, 589, 681, 587, 655, 617, 716, 716, 537, 552, 657, 638, 815, 947, 873, 674, 613, 694, 714, 654, 1019, 1238, 1048, 649, 790, 844, 785, 654, 750, 757, 603, 619, 640, 636, 627, 605, 820, 1191, 1147, 730, 757, 830, 646, 635, 801, 1201, 1143, 673, 767, 872, 659, 525, 1221, 1776, 1431, 819, 1077, 1171, 1029, 683, 2248, 3135, 2448, 951, 1935, 2067, 1779, 1154, 2255, 2931, 2077, 921, 1624, 1763, 1580, 1131, 1878, 2067, 1377, 819, 1263, 1631, 1390, 1079, 2481, 2648, 1997, 1834, 2119, 1951, 1338, 1620, 3947, 4262, 3101, 2780, 2626, 2066, 1196, 2124, 3016, 3596, 3229, 2500, 1745, 1237, 1129, 1759, 1449, 1968, 2328, 1926, 1200, 980, 1112, 1164, 942, 1227, 1295, 1019, 889, 996, 900, 804, 790, 950, 898, 728, 801, 953, 850, 637, 704, 851, 864, 616, 670, 945, 816, 613, 605, 680, 727, 611, 651, 833, 745, 589, 627, 717, 788, 650, 587, 789, 785, 603, 587, 642, 665, 592, 652, 679, 614, 590, 587, 625, 640, 576, 617, 601, 667, 719, 537, 638, 656, 557, 607, 668, 711, 689, 656, 630, 670, 628, 677, 693, 646, 695, 709, 686, 648, 641, 644, 670, 718, 694, 564, 581, 682, 649, 584, 597, 729, 748, 620, 755, 756, 562, 527, 603, 725, 685, 767, 911, 876, 669, 591, 582, 733, 726, 659, 735, 685, 559, 591, 643, 706, 761, 660, 652, 658, 638, 619, 648, 625, 680, 594, 573, 637, 609, 536, 579, 515, 607, 614, 641, 637, 606, 647, 645, 530, 547, 666, 689, 643, 609, 635, 662, 576, 600, 699, 631, 619, 602, 587, 654, 649, 613, 659, 668, 625, 685, 591, 643, 662, 583, 671, 626, 590, 623, 573, 563, 552, 625, 460, 659, 750, 588, 448, 564, 678, 648, 543, 770, 762, 627, 575, 712, 844, 705, 637, 704, 703, 611, 621, 672, 773, 729, 556, 668, 736, 620, 582, 680, 785, 654, 636, 668, 648, 570, 549, 641, 596, 552, 695, 687, 626, 539, 579, 684, 652, 580, 621, 544, 587, 558, 605, 646, 553, 577, 552, 509, 535, 590, 563, 533, 522, 553, 596, 681, 611, 550, 553, 548, 590, 555, 625, 714, 607, 594, 564, 605, 666, 642, 635, 710, 650, 562, 537, 596, 573, 492, 644, 809, 611, 475, 627, 620, 644, 561, 657, 767, 798, 623, 556, 633, 765, 760, 695, 763, 695, 606, 580, 662, 704, 637, 787, 786, 630, 535, 623, 616, 604, 629, 617, 620, 515, 512, 545, 581, 588, 514, 617, 592, 604, 578, 600, 669, 794, 755, 691, 523, 644, 600, 516, 637, 836, 871, 774, 724, 744, 609, 544, 623, 712, 823, 683, 781, 778, 567, 552, 620, 822, 880, 663, 616, 600, 575, 564, 616, 665, 750, 666, 648, 614, 532, 534, 546, 603, 686, 648, 666, 639, 549, 538, 581, 590, 622, 588, 567, 606, 654, 631, 576, 537, 611, 649, 765, 720, 610, 606, 654, 663, 567, 880, 1234, 998, 576, 677, 792, 890, 547, 992, 1362, 1129, 672, 795, 941, 939, 570, 685, 958, 1006, 678, 570, 710, 720, 615, 504, 545, 659, 578, 437, 485, 580, 549, 694, 747, 553, 480, 537, 564, 573, 517, 602, 670, 588, 451, 511, 643, 659, 555, 499, 586, 570, 508, 453, 523, 602, 556, 501, 509, 471, 443, 500, 519, 504, 495, 510, 547, 443, 411, 499, 521, 499, 437, 444, 512, 506, 369, 311, 445, 495, 447, 429, 482, 497, 465, 397, 420, 522, 473, 450, 386, 378, 419, 312, 340, 471, 490, 446, 409, 463, 416, 325, 388, 465, 493, 455, 435, 460, 434, 377, 488, 508, 470, 490, 460, 391, 391, 398, 432, 412, 445]"
0.7027321457862854,0.36415237188339233,-0.5782604217529297,0.5563676357269287,0.33265775442123413,-0.923391580581665,0.4754341244697571,-0.35555678606033325,0.7674694061279297,16.0,-0.25141555070877075,0.7367134094238281,26.0,-0.10564643144607544,0.6613254547119141,27.0,0.0913349986076355,0.5680561065673828,20.0,0.13539475202560425,-0.8418560028076172,16.75,"[522, 605, 620, 569, 614, 569, 622, 607, 419, 501, 569, 539, 537, 491, 569, 555, 444, 495, 550, 570, 531, 522, 548, 454, 478, 500, 585, 590, 486, 478, 482, 524, 520, 510, 549, 547, 489, 450, 498, 555, 478, 413, 487, 499, 502, 485, 442, 540, 444, 491, 474, 514, 543, 522, 525, 522, 595, 514, 434, 496, 604, 607, 520, 554, 538, 446, 374, 457, 538, 503, 457, 493, 550, 454, 459, 483, 497, 503, 408, 541, 623, 602, 530, 544, 565, 575, 485, 570, 548, 464, 554, 601, 569, 543, 507, 585, 715, 588, 494, 549, 644, 585, 475, 688, 622, 605, 494, 512, 600, 527, 479, 601, 488, 445, 599, 560, 437, 506, 517, 492, 510, 556, 565, 548, 507, 523, 540, 560, 463, 468, 444, 519, 563, 578, 543, 465, 415, 553, 524, 492, 517, 570, 572, 514, 516, 578, 602, 667, 642, 660, 606, 540, 549, 599, 543, 589, 542, 516, 599, 564, 508, 610, 529, 509, 548, 567, 551, 476, 546, 548, 601, 560, 488, 633, 663, 611, 545, 577, 613, 505, 466, 632, 583, 486, 559, 583, 521, 490, 491, 566, 533, 493, 511, 541, 591, 602, 525, 479, 511, 529, 513, 577, 674, 575, 566, 585, 643, 667, 608, 572, 612, 554, 595, 620, 673, 701, 583, 612, 652, 562, 612, 665, 724, 656, 589, 557, 563, 541, 523, 541, 516, 502, 517, 587, 486, 507, 601, 590, 504, 449, 478, 559, 534, 433, 520, 520, 513, 487, 563, 615, 544, 553, 583, 602, 602, 548, 2431, 1128, 1887, 1575, 1295, 1155, 2897, 3692, 6917, 2615, 6045, 4726, 3744, 2601, 8961, 11462, 7114, 3233, 6967, 5470, 4082, 3217, 10390, 12635, 3616, 2101, 3201, 3199, 2458, 2065, 4990, 5838, 1083, 1054, 1268, 1145, 948, 857, 803, 1274, 5690, 2551, 6286, 4942, 2851, 1969, 7422, 9698, 6417, 3479, 8214, 6348, 3537, 2885, 9964, 12167, 2283, 1620, 3266, 2693, 1487, 1663, 4259, 4720, 977, 948, 1313, 1193, 795, 724, 1139, 1345, 959, 1797, 2428, 1783, 863, 1438, 2241, 2042, 1195, 3164, 3645, 2191, 1023, 1948, 2648, 1894, 1502, 3015, 3484, 2178, 873, 1993, 2732, 2203, 2331, 2262, 2218, 1721, 1214, 1972, 2441, 2625, 3876, 5655, 4821, 2046, 2194, 2907, 2672, 2285, 3527, 6830, 6489, 2831, 1998, 2838, 4964, 3923, 2358, 5069, 4938, 2273, 1502, 2241, 3891, 3040, 1397, 3001, 2775, 1207, 895, 1430, 2356, 1708, 792, 1315, 1206, 807, 793, 709, 998, 961, 627, 831, 905, 736, 680, 658, 702, 665, 782, 751, 789, 703, 626, 665, 605, 680, 673, 569, 678, 644, 593, 693, 618, 689, 651, 650, 620, 582, 656, 717, 585, 548, 674, 704, 602, 542, 669, 732, 571, 504, 793, 886, 705, 586, 682, 729, 626, 593, 835, 1142, 936, 528, 706, 794, 702, 547, 738, 1124, 1054, 669, 724, 771, 699, 625, 893, 1191, 1117, 737, 866, 826, 699, 606, 666, 725, 766, 704, 729, 691, 642, 697, 1420, 1830, 1280, 838, 1176, 969, 891, 731, 2249, 2975, 1831, 972, 1652, 1158, 1207, 731, 1457, 1496, 1027, 962, 918, 983, 1043, 918, 1191, 1424, 1557, 1102, 1121, 1085, 998, 1106, 1237, 1368, 1189, 942, 1051, 691, 767, 966, 928, 897, 780, 764, 814, 704, 673, 799, 965, 937, 912, 967, 885, 771, 732, 745, 904, 1043, 1052, 1072, 887, 756, 887, 793, 811, 867, 804, 724, 671, 707, 759, 725, 798, 757, 687, 660, 663, 632, 644, 703, 820, 769, 661, 626, 636, 564, 565, 721, 650, 792, 734, 571, 627, 597, 650, 658, 539, 576, 565, 519, 557, 549, 572, 597, 602, 561, 550, 614, 662, 638, 591, 605, 665, 715, 783, 733, 728, 725, 728, 710, 705, 751, 910, 859, 608, 662, 854, 892, 662, 698, 725, 716, 595, 635, 761, 733, 661, 702, 693, 646, 565, 604, 709, 712, 704, 688, 664, 587, 507, 652, 689, 678, 693, 701, 674, 684, 610, 642, 676, 697, 575, 653, 695, 643, 605, 579, 580, 589, 597, 545, 638, 702, 502, 464, 637, 671, 615, 640, 619, 564, 531, 573, 626, 624, 569, 449, 654, 624, 537, 630, 618, 617, 589, 627, 770, 700, 559, 693, 626, 568, 681, 819, 773, 640, 627, 734, 741, 602, 633, 634, 580, 572, 545, 674, 706, 583, 599, 566, 640, 727, 536, 488, 618, 584, 653, 583, 656, 739, 641, 585, 602, 623, 580, 552, 568, 596, 587, 580, 615, 617, 592, 647, 538, 500, 567, 640, 631, 511, 653, 652, 558, 533, 487, 580, 569, 502, 737, 565, 600, 649, 574, 603, 517, 677, 654, 623, 723, 593, 565, 766, 790, 741, 548, 613, 746, 782, 644, 730, 813, 735, 631, 652, 659, 593, 639, 697, 635, 616, 556, 581, 594, 585, 555, 623, 579, 577, 562, 568, 697, 649, 493, 594, 676, 636, 591, 619, 658, 703, 571, 693, 767, 629, 527, 699, 724, 633, 632, 799, 801, 618, 490, 646, 690, 550, 510, 569, 726, 583, 630, 655, 660, 670, 596, 614, 693, 665, 703, 724, 548, 604, 618, 587, 654, 659, 615, 562, 607, 593, 553, 549, 552, 645, 572, 515, 591, 548, 541, 564, 563, 643, 618, 693, 662, 592, 591, 655, 715, 651, 683, 850, 825, 698, 560, 648, 829, 685, 580, 745, 788, 735, 634, 614, 722, 648, 628, 695, 759, 696, 619, 658, 711, 680, 583, 625, 708, 595, 481, 575, 651, 685, 672, 582, 634, 688, 599, 511, 638, 766, 651, 662, 640, 635, 655, 547, 767, 817, 657, 564, 547, 612, 650, 546, 584, 693, 577, 702, 681, 507, 616, 648, 628, 555, 755, 936, 807, 556, 701, 672, 663, 594, 793, 886, 871, 639, 653, 663, 778, 709, 697, 651, 714, 683, 604, 537, 632, 767, 523, 587, 650, 607, 550, 607, 668, 573, 534, 521, 625, 613, 568, 644, 600, 558, 492, 539, 619, 541, 498, 630, 651, 555, 518, 495, 565, 609, 501, 514, 496, 507, 526, 473, 524, 599, 500, 463, 509, 568, 478, 423, 489, 579, 488, 433, 496, 546, 498, 477, 471, 537, 523, 482, 499, 557, 461, 476, 425, 466, 517, 450, 432, 408, 443, 370, 376, 491, 477, 388, 420, 467, 464, 418, 428, 406, 451, 463, 414, 437, 531, 459, 452, 474, 431, 450, 527, 542]"
0.7155482769012451,0.31629499793052673,-0.5432709455490112,0.5191859602928162,0.28254538774490356,-0.7268331050872803,0.41072410345077515,-0.6596958637237549,0.8917808532714844,19.25,-0.3881847858428955,0.8158206939697266,18.5,0.15283465385437012,0.5700588226318359,19.75,0.2164924144744873,0.5321502685546875,20.75,0.249251127243042,0.5373001098632812,17.75,"[558, 586, 598, 672, 705, 674, 601, 584, 514, 539, 581, 663, 663, 658, 640, 558, 447, 485, 570, 577, 592, 657, 597, 480, 533, 579, 546, 468, 524, 528, 566, 532, 482, 571, 567, 420, 468, 548, 509, 499, 478, 570, 614, 592, 562, 579, 620, 569, 535, 624, 616, 556, 601, 642, 624, 503, 472, 544, 570, 503, 487, 499, 494, 448, 458, 499, 552, 463, 476, 436, 474, 502, 620, 552, 563, 585, 595, 522, 515, 627, 610, 490, 480, 604, 637, 491, 532, 643, 599, 467, 451, 523, 587, 525, 508, 632, 508, 523, 506, 475, 474, 505, 572, 544, 500, 495, 510, 616, 521, 523, 642, 553, 520, 538, 555, 633, 615, 544, 591, 583, 544, 562, 623, 619, 592, 576, 559, 547, 493, 605, 600, 557, 525, 530, 551, 528, 509, 602, 528, 530, 566, 575, 601, 529, 586, 611, 583, 545, 630, 622, 615, 589, 619, 578, 587, 598, 553, 484, 615, 610, 585, 592, 582, 586, 587, 497, 544, 552, 576, 536, 501, 568, 551, 511, 468, 520, 590, 526, 546, 522, 549, 597, 592, 656, 552, 621, 555, 467, 519, 609, 554, 476, 543, 521, 457, 457, 516, 444, 447, 503, 493, 579, 574, 496, 495, 469, 528, 566, 572, 623, 631, 559, 536, 507, 544, 553, 509, 557, 544, 590, 638, 598, 551, 495, 491, 557, 599, 683, 642, 604, 581, 568, 594, 585, 646, 666, 579, 596, 628, 686, 573, 555, 669, 638, 632, 625, 607, 645, 503, 578, 558, 507, 562, 549, 579, 593, 790, 839, 945, 731, 638, 787, 1219, 1215, 2766, 1537, 2477, 1863, 1716, 1391, 3658, 4575, 3194, 1621, 2886, 2511, 2293, 1449, 3949, 5130, 1525, 1056, 1188, 1415, 1468, 984, 1134, 1712, 985, 792, 988, 1069, 939, 737, 1228, 1417, 3352, 1939, 4412, 3307, 1808, 1603, 5284, 6455, 6028, 4284, 8726, 6080, 3017, 3448, 10899, 12673, 5678, 5805, 10592, 7419, 2970, 4179, 12147, 13504, 2451, 4944, 8018, 5677, 1941, 2988, 7695, 7951, 1293, 3708, 4290, 2457, 1301, 2092, 3911, 3226, 1732, 3695, 3950, 2219, 1125, 2376, 2806, 1778, 1594, 3353, 3896, 2405, 1237, 1968, 1944, 1612, 2201, 4677, 4409, 1900, 1203, 1804, 2348, 1610, 3294, 7793, 7583, 3382, 1399, 3402, 5720, 3938, 2123, 6659, 6770, 3190, 1110, 3602, 6058, 4271, 716, 2290, 2780, 1640, 732, 1836, 3417, 2919, 1277, 973, 1111, 929, 821, 1096, 1833, 1924, 897, 695, 760, 774, 722, 721, 880, 979, 636, 757, 889, 696, 587, 670, 705, 791, 583, 691, 786, 607, 564, 645, 691, 694, 569, 600, 657, 547, 571, 734, 775, 612, 665, 744, 666, 598, 735, 836, 781, 598, 652, 651, 632, 579, 640, 714, 740, 644, 606, 675, 630, 542, 536, 632, 711, 653, 647, 645, 508, 527, 629, 696, 654, 594, 914, 1310, 1027, 614, 773, 778, 777, 577, 1681, 2906, 2307, 798, 1280, 1178, 1426, 804, 2002, 3348, 2687, 816, 1333, 1384, 1571, 850, 2637, 4768, 3831, 1144, 1794, 2573, 3160, 1334, 4734, 7359, 5176, 1676, 2764, 4348, 4964, 1590, 3079, 4706, 3514, 1428, 1989, 2846, 3153, 1108, 1498, 2103, 1755, 1031, 1287, 1310, 951, 803, 1265, 1531, 1340, 869, 1045, 1329, 1015, 733, 1109, 1711, 1523, 833, 888, 1183, 1179, 822, 766, 1024, 1069, 796, 664, 864, 906, 759, 669, 771, 944, 873, 679, 558, 647, 648, 681, 771, 899, 807, 640, 510, 602, 633, 613, 613, 789, 687, 579, 715, 655, 683, 640, 505, 673, 630, 672, 708, 635, 727, 639, 627, 582, 597, 682, 622, 621, 644, 738, 730, 635, 722, 779, 685, 621, 631, 728, 673, 582, 690, 783, 587, 546, 679, 624, 643, 631, 543, 565, 569, 554, 628, 553, 631, 593, 560, 512, 562, 623, 603, 514, 581, 524, 512, 546, 610, 587, 491, 693, 712, 655, 599, 642, 708, 605, 538, 609, 812, 834, 615, 638, 773, 721, 557, 611, 700, 669, 683, 661, 715, 734, 630, 622, 581, 536, 741, 673, 537, 645, 656, 626, 689, 684, 627, 649, 611, 566, 643, 624, 731, 806, 667, 615, 638, 621, 618, 545, 622, 685, 618, 700, 677, 630, 578, 574, 656, 623, 568, 582, 606, 610, 631, 648, 724, 686, 667, 617, 617, 656, 605, 594, 737, 747, 643, 574, 603, 668, 591, 639, 782, 668, 595, 708, 699, 741, 642, 581, 594, 554, 617, 650, 634, 680, 638, 653, 538, 647, 692, 599, 594, 691, 748, 568, 559, 629, 650, 614, 590, 634, 669, 667, 545, 496, 596, 654, 491, 595, 733, 551, 554, 519, 580, 510, 581, 660, 561, 604, 552, 554, 607, 526, 646, 748, 632, 494, 589, 634, 665, 553, 655, 672, 563, 549, 647, 659, 623, 521, 591, 692, 682, 568, 648, 723, 599, 523, 575, 715, 717, 613, 751, 690, 550, 606, 636, 770, 732, 643, 662, 768, 635, 519, 591, 681, 750, 627, 663, 734, 588, 575, 573, 564, 687, 651, 689, 662, 588, 652, 650, 591, 593, 610, 711, 663, 570, 628, 629, 670, 645, 554, 700, 768, 658, 528, 526, 633, 601, 728, 713, 823, 769, 654, 570, 822, 931, 740, 627, 790, 779, 699, 534, 789, 982, 790, 687, 781, 788, 687, 613, 785, 903, 756, 728, 894, 944, 732, 618, 1052, 1114, 619, 639, 815, 724, 587, 540, 812, 910, 522, 549, 778, 726, 549, 530, 666, 738, 609, 585, 732, 609, 618, 596, 591, 661, 606, 601, 518, 492, 596, 569, 482, 543, 532, 692, 665, 536, 544, 671, 641, 508, 483, 636, 665, 508, 440, 567, 593, 461, 581, 615, 683, 637, 491, 449, 595, 613, 609, 636, 554, 601, 581, 663, 683, 549, 686, 625, 634, 595, 578, 622, 519, 637, 502, 524, 547, 461, 465, 537, 487, 526, 511, 558, 478, 448, 491, 494, 514, 475, 586, 544, 498, 513, 554, 536, 538, 556, 547, 470, 458, 526, 487, 453, 497, 517, 473, 454, 530, 558, 480, 459, 476, 511, 486, 502, 530, 471, 477, 532, 475, 494, 529, 497, 470, 487, 498, 512, 467, 503, 509, 553, 514, 478, 497, 467, 507, 499, 460, 543, 456, 364, 433, 468, 450, 418, 448, 448, 370, 402, 458, 438, 370, 360, 397, 419, 413, 467, 459, 438, 377, 343, 496, 523, 461, 463, 533, 467, 402, 475]"
0.6664475202560425,0.39559900760650635,-0.3400399386882782,0.35479986667633057,0.44234001636505127,-0.30539461970329285,0.23026403784751892,-0.6994873881340027,0.9166717529296875,29.25,-0.3351361155509949,0.8683204650878906,20.25,-0.28850144147872925,0.7995128631591797,30.0,-0.004115760326385498,0.5979537963867188,18.5,0.10288649797439575,0.48880577087402344,22.5,"[414, 567, 634, 571, 530, 569, 637, 566, 452, 600, 642, 592, 599, 663, 605, 546, 484, 629, 643, 617, 661, 681, 647, 595, 460, 492, 490, 474, 457, 481, 516, 437, 469, 426, 403, 488, 428, 378, 461, 436, 480, 429, 401, 496, 505, 454, 493, 555, 517, 440, 461, 497, 497, 467, 488, 491, 558, 523, 472, 516, 543, 582, 547, 445, 583, 493, 517, 586, 555, 564, 500, 515, 551, 592, 601, 560, 498, 492, 522, 568, 636, 586, 586, 542, 579, 596, 506, 599, 516, 545, 555, 452, 531, 578, 544, 491, 429, 449, 548, 522, 504, 500, 493, 511, 511, 515, 521, 484, 523, 567, 501, 476, 526, 519, 530, 511, 519, 504, 520, 513, 555, 496, 537, 590, 533, 439, 492, 566, 501, 461, 498, 569, 485, 433, 514, 528, 438, 461, 536, 611, 548, 567, 536, 496, 578, 513, 555, 617, 551, 526, 557, 591, 533, 442, 409, 555, 524, 484, 482, 506, 547, 524, 472, 505, 582, 546, 520, 546, 664, 575, 526, 587, 638, 606, 561, 677, 585, 537, 471, 447, 596, 631, 634, 662, 506, 541, 508, 458, 550, 602, 550, 516, 397, 513, 511, 482, 483, 460, 512, 491, 521, 591, 603, 657, 590, 528, 503, 514, 503, 632, 657, 593, 543, 596, 680, 572, 482, 640, 580, 435, 506, 555, 582, 483, 443, 529, 491, 412, 474, 506, 502, 451, 489, 467, 495, 502, 491, 448, 529, 535, 595, 560, 536, 591, 553, 473, 469, 508, 581, 629, 502, 428, 447, 414, 422, 441, 600, 734, 695, 502, 489, 653, 904, 849, 2823, 2162, 2960, 2001, 1839, 2379, 5283, 5624, 8596, 4648, 7478, 5644, 5842, 5031, 13088, 15302, 9525, 4551, 7569, 7105, 6997, 5142, 13386, 16102, 3870, 2249, 3713, 4303, 3488, 2607, 5894, 6674, 2766, 1112, 3572, 3239, 1343, 1006, 3280, 4528, 4666, 1005, 4259, 4244, 2309, 682, 3723, 6386, 2750, 3559, 4324, 3264, 1765, 2720, 2927, 2610, 1543, 4835, 6251, 4557, 1579, 3774, 5953, 4567, 1177, 4314, 5148, 3350, 1123, 3014, 4644, 3406, 1972, 5325, 5631, 2856, 1125, 2874, 4265, 2940, 2676, 6996, 7498, 3657, 1487, 3289, 5633, 4404, 3691, 8338, 10248, 5714, 1999, 4140, 9201, 8889, 5994, 12025, 16129, 9602, 3456, 6333, 15739, 16128, 5304, 13275, 17082, 9841, 3588, 6896, 16621, 16385, 1752, 7899, 9372, 4967, 1497, 3932, 8726, 7834, 1108, 2198, 2519, 1562, 842, 1202, 2258, 2080, 910, 1493, 1378, 877, 621, 819, 1171, 870, 771, 1840, 1775, 847, 657, 1011, 1516, 1087, 797, 1361, 1270, 707, 683, 999, 1143, 758, 660, 787, 632, 510, 550, 749, 715, 533, 665, 639, 606, 611, 604, 656, 666, 627, 683, 644, 644, 650, 649, 702, 725, 751, 606, 641, 544, 550, 617, 613, 616, 605, 543, 597, 583, 520, 531, 595, 525, 532, 610, 661, 599, 611, 586, 564, 572, 546, 896, 1022, 969, 718, 741, 664, 742, 762, 1375, 1999, 1756, 897, 956, 991, 1173, 780, 1659, 2567, 2185, 927, 1138, 1419, 1480, 903, 1864, 2965, 2719, 1031, 1500, 2464, 2303, 985, 2105, 3338, 2693, 1019, 1547, 2612, 2667, 1217, 2109, 2906, 2061, 853, 1420, 1585, 1493, 1019, 2343, 2387, 1233, 762, 1406, 1742, 1355, 1229, 2591, 2094, 1265, 1437, 1451, 2115, 1545, 1500, 1895, 1554, 1198, 1453, 1187, 1349, 936, 1313, 942, 922, 957, 910, 801, 645, 879, 990, 661, 731, 859, 903, 704, 619, 851, 826, 605, 612, 704, 727, 642, 529, 575, 697, 655, 675, 596, 602, 604, 594, 540, 631, 737, 754, 580, 481, 588, 548, 547, 573, 796, 751, 630, 508, 622, 714, 668, 621, 795, 777, 700, 609, 716, 797, 678, 716, 715, 704, 660, 637, 723, 757, 660, 659, 655, 719, 721, 689, 698, 748, 734, 716, 586, 784, 769, 594, 593, 689, 724, 680, 563, 668, 757, 690, 644, 639, 716, 653, 707, 772, 797, 695, 716, 784, 821, 786, 759, 870, 925, 725, 703, 815, 813, 826, 703, 793, 830, 715, 760, 666, 713, 783, 613, 702, 664, 556, 525, 618, 711, 693, 623, 684, 678, 583, 596, 734, 816, 719, 567, 697, 761, 611, 576, 746, 740, 646, 590, 617, 687, 614, 550, 575, 544, 612, 602, 613, 689, 557, 519, 586, 575, 608, 439, 604, 698, 597, 488, 572, 686, 566, 515, 658, 740, 673, 519, 549, 574, 585, 591, 771, 779, 673, 592, 552, 652, 601, 565, 675, 602, 553, 701, 593, 650, 688, 730, 629, 610, 573, 699, 607, 674, 816, 598, 763, 720, 601, 640, 693, 764, 647, 545, 692, 699, 584, 568, 661, 691, 605, 547, 625, 702, 625, 571, 576, 610, 574, 481, 609, 635, 602, 546, 655, 665, 510, 557, 592, 693, 700, 546, 609, 648, 554, 533, 607, 623, 637, 593, 614, 573, 505, 686, 705, 616, 580, 626, 683, 637, 584, 606, 681, 681, 610, 580, 650, 638, 617, 537, 638, 648, 558, 647, 565, 591, 575, 527, 601, 581, 573, 591, 469, 589, 621, 662, 656, 603, 624, 549, 495, 529, 663, 694, 715, 792, 734, 613, 524, 785, 843, 809, 598, 922, 953, 649, 580, 1215, 1289, 802, 560, 830, 991, 723, 710, 1337, 1328, 733, 647, 699, 829, 737, 693, 1129, 1040, 650, 772, 764, 764, 726, 709, 1023, 947, 588, 819, 818, 712, 669, 703, 859, 767, 680, 646, 733, 602, 691, 776, 661, 697, 661, 547, 544, 558, 639, 632, 631, 682, 595, 643, 546, 554, 605, 585, 634, 540, 714, 621, 566, 593, 620, 645, 712, 735, 631, 666, 754, 727, 609, 567, 816, 841, 560, 584, 649, 607, 517, 521, 639, 646, 600, 580, 505, 626, 630, 563, 602, 623, 688, 623, 591, 594, 637, 642, 673, 686, 533, 528, 636, 552, 588, 607, 586, 638, 551, 476, 530, 577, 586, 570, 582, 648, 564, 448, 566, 554, 538, 551, 569, 593, 515, 505, 526, 555, 509, 501, 606, 599, 497, 535, 575, 553, 524, 544, 570, 558, 493, 608, 534, 433, 465, 575, 570, 488, 603, 545, 521, 460, 460, 522, 521, 565, 565, 465, 441, 509, 522, 527, 448, 504, 388, 404, 474, 496, 415, 420, 469, 432, 442, 503, 515, 483, 392, 461, 511, 440, 414, 417, 475, 491, 360, 365, 452, 493, 536, 458, 480, 447, 444, 417, 465, 537]"
0.5880382061004639,0.4129633605480194,0.08309835195541382,0.133840411901474,0.4974079132080078,0.40102818608283997,-0.013939931988716125,-0.3063822388648987,0.7794857025146484,31.75,-0.30552393198013306,0.8113861083984375,25.0,-0.2859259247779846,0.7766246795654297,-31.5,-0.04660135507583618,0.4913806915283203,20.75,0.03050321340560913,0.4195690155029297,23.5,"[558, 591, 572, 595, 572, 592, 569, 590, 528, 567, 600, 543, 619, 662, 576, 486, 617, 743, 660, 580, 639, 681, 588, 513, 493, 592, 610, 598, 566, 616, 611, 537, 476, 550, 570, 519, 480, 658, 657, 536, 520, 550, 646, 575, 517, 571, 564, 577, 451, 494, 536, 639, 626, 454, 429, 485, 538, 530, 496, 604, 684, 567, 486, 471, 449, 420, 478, 548, 494, 446, 482, 409, 497, 488, 551, 589, 515, 449, 502, 490, 538, 551, 595, 574, 557, 469, 436, 511, 536, 428, 512, 562, 601, 523, 544, 648, 539, 566, 568, 571, 627, 555, 529, 557, 588, 620, 626, 604, 601, 582, 602, 622, 560, 626, 577, 573, 572, 568, 574, 552, 574, 655, 590, 558, 614, 620, 574, 480, 573, 674, 598, 592, 567, 452, 459, 537, 670, 622, 592, 651, 589, 459, 510, 643, 630, 630, 557, 566, 666, 571, 474, 540, 655, 585, 554, 570, 637, 567, 470, 556, 507, 519, 556, 582, 538, 502, 523, 519, 516, 448, 453, 606, 559, 548, 518, 560, 519, 481, 475, 583, 544, 503, 560, 559, 587, 493, 510, 574, 600, 594, 559, 588, 520, 481, 490, 520, 463, 470, 560, 533, 500, 571, 539, 416, 539, 604, 566, 546, 584, 575, 591, 615, 645, 594, 559, 596, 499, 568, 516, 546, 587, 574, 620, 544, 560, 577, 551, 534, 552, 516, 576, 576, 775, 698, 548, 643, 693, 626, 567, 688, 606, 544, 500, 602, 640, 519, 435, 589, 640, 563, 546, 580, 627, 599, 589, 602, 508, 523, 488, 432, 561, 546, 519, 553, 758, 840, 987, 910, 694, 945, 1510, 1364, 5084, 3022, 5163, 4405, 3578, 3577, 9490, 10374, 12908, 6124, 11803, 10163, 9014, 7035, 20893, 24243, 12692, 5360, 10859, 9748, 8840, 6265, 19111, 22804, 5177, 2207, 4135, 4032, 3679, 2898, 7254, 8708, 5125, 2000, 5246, 4695, 2095, 1052, 4809, 7536, 10344, 9783, 18915, 13788, 5003, 6819, 20887, 23801, 15312, 16984, 30568, 20642, 7763, 12496, 36144, 39365, 11404, 14607, 24627, 15797, 6253, 10250, 29176, 31243, 2953, 9397, 12489, 6851, 2451, 5841, 13614, 12873, 936, 4935, 5549, 2877, 729, 3082, 5698, 4424, 909, 2580, 2812, 1436, 960, 1616, 2738, 2197, 1658, 2876, 2503, 896, 1139, 2366, 3630, 2869, 1675, 3975, 4765, 2427, 979, 3270, 6855, 6170, 1445, 2232, 3017, 1970, 801, 2398, 4367, 3957, 1287, 1562, 2184, 1580, 1019, 1109, 1751, 2065, 1054, 1571, 1720, 1100, 898, 955, 1164, 1211, 752, 845, 762, 673, 684, 772, 894, 763, 572, 628, 832, 801, 640, 732, 878, 829, 540, 491, 606, 629, 591, 607, 561, 610, 609, 656, 654, 649, 568, 609, 561, 618, 654, 630, 829, 822, 558, 560, 573, 639, 575, 641, 692, 713, 601, 593, 579, 578, 633, 712, 651, 708, 756, 621, 486, 507, 692, 675, 670, 706, 776, 767, 708, 592, 731, 715, 623, 596, 717, 791, 810, 672, 793, 762, 669, 660, 777, 728, 862, 786, 1573, 2202, 1806, 952, 1324, 1403, 1286, 1222, 3024, 4971, 4094, 1439, 2557, 2772, 1975, 1494, 3407, 5971, 5016, 1661, 2673, 3177, 2364, 1225, 2499, 3968, 3174, 1173, 1646, 2094, 2112, 959, 1693, 2738, 2443, 1038, 1222, 1413, 1295, 854, 994, 1374, 1666, 1302, 944, 1049, 822, 888, 1140, 1537, 2323, 1894, 1195, 1413, 1204, 1024, 916, 1103, 1396, 1283, 895, 1053, 1055, 802, 664, 740, 763, 739, 660, 632, 726, 675, 634, 705, 738, 742, 611, 709, 717, 614, 675, 705, 761, 669, 640, 825, 765, 671, 762, 730, 674, 626, 634, 716, 808, 760, 619, 649, 678, 637, 598, 578, 706, 682, 596, 627, 663, 681, 645, 626, 638, 607, 600, 665, 673, 673, 584, 574, 633, 632, 542, 564, 687, 719, 628, 591, 649, 625, 572, 495, 541, 660, 700, 615, 596, 587, 617, 722, 697, 682, 650, 626, 639, 635, 665, 717, 756, 682, 713, 574, 657, 773, 674, 749, 660, 565, 670, 622, 562, 604, 709, 801, 724, 529, 632, 672, 643, 626, 715, 685, 610, 585, 687, 710, 632, 610, 656, 612, 623, 694, 683, 620, 627, 605, 723, 610, 626, 724, 684, 655, 681, 684, 673, 663, 664, 719, 689, 679, 672, 658, 581, 598, 687, 685, 686, 719, 732, 708, 753, 792, 808, 748, 704, 654, 765, 826, 682, 720, 752, 612, 601, 646, 631, 695, 656, 635, 632, 530, 584, 605, 584, 622, 781, 762, 745, 773, 772, 692, 616, 719, 768, 781, 693, 705, 698, 690, 711, 743, 639, 754, 667, 573, 587, 730, 720, 565, 586, 709, 663, 593, 615, 747, 780, 663, 664, 759, 702, 645, 551, 701, 807, 593, 684, 667, 676, 681, 625, 737, 785, 656, 785, 706, 701, 700, 661, 696, 670, 660, 648, 695, 689, 598, 557, 639, 679, 640, 507, 506, 646, 572, 540, 610, 640, 660, 613, 501, 506, 585, 582, 569, 600, 667, 573, 673, 662, 600, 616, 630, 631, 607, 635, 786, 799, 647, 577, 651, 774, 718, 565, 759, 761, 691, 609, 647, 781, 696, 769, 846, 675, 604, 710, 721, 742, 704, 759, 1024, 831, 674, 700, 884, 918, 690, 834, 1176, 952, 702, 659, 827, 921, 713, 904, 852, 680, 699, 760, 786, 761, 722, 731, 739, 635, 612, 672, 688, 602, 648, 718, 692, 638, 625, 618, 593, 612, 711, 804, 680, 606, 593, 636, 698, 669, 829, 759, 665, 836, 762, 710, 691, 839, 910, 544, 704, 870, 803, 676, 665, 965, 859, 693, 758, 789, 802, 655, 824, 976, 796, 719, 648, 599, 676, 681, 706, 703, 740, 647, 637, 602, 570, 660, 677, 645, 655, 603, 629, 590, 582, 576, 619, 636, 612, 516, 563, 684, 664, 567, 561, 653, 597, 524, 578, 545, 507, 604, 601, 626, 588, 689, 568, 583, 587, 533, 626, 753, 778, 509, 560, 591, 556, 454, 571, 748, 663, 522, 621, 532, 511, 557, 545, 537, 495, 547, 560, 551, 586, 530, 495, 585, 557, 538, 584, 507, 556, 594, 594, 544, 443, 506, 545, 552, 507, 524, 578, 512, 426, 491, 544, 521, 478, 489, 544, 520, 511, 423, 405, 436, 454, 397, 389, 427, 395, 538, 510, 458, 472, 492, 453, 485, 479, 497, 450, 433, 437, 450, 362, 458, 496, 497, 490, 486, 471, 447, 494, 513, 496]"
0.5311562418937683,0.3741896450519562,0.37250086665153503,-0.052800729870796204,0.33566316962242126,0.7650929689407349,-0.2773204445838928,-0.9061393737792969,2.128744125366211,16.25,-0.4096088409423828,0.8268356323242188,19.0,-0.16527748107910156,0.6733417510986328,22.75,-0.1318035125732422,0.6433010101318359,25.5,0.3960552215576172,0.10786056518554688,-31.5,"[706, 676, 662, 672, 759, 667, 665, 679, 666, 780, 650, 599, 701, 686, 657, 560, 511, 553, 531, 552, 575, 598, 593, 530, 516, 517, 489, 522, 583, 562, 591, 575, 457, 513, 537, 502, 551, 527, 490, 518, 515, 568, 602, 488, 530, 539, 524, 509, 525, 649, 561, 498, 551, 493, 521, 474, 514, 617, 576, 507, 547, 468, 575, 594, 544, 635, 516, 461, 531, 533, 478, 481, 586, 495, 483, 618, 651, 537, 489, 623, 483, 453, 555, 608, 558, 512, 516, 483, 586, 515, 511, 614, 578, 517, 537, 556, 581, 583, 563, 671, 659, 531, 547, 538, 520, 528, 500, 561, 598, 576, 586, 560, 521, 476, 498, 468, 564, 562, 533, 570, 609, 535, 656, 560, 477, 527, 554, 613, 522, 516, 544, 504, 434, 496, 546, 512, 470, 561, 587, 554, 560, 689, 674, 542, 543, 526, 451, 531, 523, 592, 590, 530, 538, 570, 618, 577, 556, 579, 555, 492, 475, 596, 654, 525, 538, 592, 534, 508, 574, 570, 547, 564, 553, 550, 540, 584, 620, 535, 492, 631, 584, 417, 504, 600, 471, 497, 541, 560, 506, 498, 584, 546, 479, 573, 544, 603, 545, 532, 589, 510, 480, 596, 648, 557, 475, 448, 536, 521, 518, 535, 542, 565, 510, 549, 618, 564, 489, 542, 557, 498, 508, 598, 559, 476, 435, 476, 459, 509, 499, 517, 527, 496, 560, 482, 543, 651, 537, 492, 525, 583, 532, 591, 638, 575, 555, 590, 604, 597, 549, 573, 528, 602, 637, 578, 537, 511, 501, 457, 532, 568, 523, 494, 517, 507, 547, 568, 577, 561, 571, 572, 532, 492, 849, 734, 1019, 977, 820, 771, 1296, 1355, 2420, 1345, 2707, 2776, 2111, 1558, 4225, 4742, 3432, 2400, 5212, 5307, 3099, 2470, 6829, 7355, 4397, 4645, 9961, 8548, 3131, 3448, 9013, 10125, 2311, 6916, 11186, 8499, 2398, 4660, 9504, 9186, 3606, 6239, 6119, 4433, 1774, 5027, 6436, 4431, 7571, 4628, 8125, 6497, 2902, 3485, 6339, 9584, 4905, 6180, 9672, 7195, 2496, 4888, 9107, 9386, 2123, 5553, 6158, 3844, 1571, 4542, 7434, 5806, 1712, 5159, 5544, 2918, 1212, 3525, 5519, 4015, 1021, 3316, 4302, 2501, 749, 2486, 4535, 3936, 4280, 4396, 7484, 4602, 1720, 4029, 10203, 10813, 9705, 10122, 16675, 10030, 4077, 10041, 24459, 25330, 11133, 10161, 17160, 10576, 4957, 11307, 26752, 27712, 6662, 3475, 6632, 4979, 3043, 4660, 11977, 13293, 2641, 2945, 1927, 1537, 1008, 2579, 4079, 3353, 1258, 1749, 1289, 747, 713, 1401, 1600, 864, 676, 651, 754, 683, 570, 630, 794, 907, 633, 848, 873, 673, 606, 776, 909, 809, 561, 729, 812, 647, 587, 682, 823, 766, 627, 626, 693, 610, 506, 675, 767, 781, 630, 674, 667, 530, 573, 577, 586, 635, 623, 696, 691, 609, 571, 557, 569, 573, 544, 584, 610, 612, 545, 601, 585, 510, 638, 648, 655, 625, 581, 588, 601, 573, 722, 852, 882, 813, 671, 694, 665, 654, 1575, 2342, 2250, 1248, 1165, 1472, 1226, 757, 3544, 6393, 5659, 2030, 2134, 2470, 2733, 1414, 5441, 9213, 7445, 2309, 2612, 2859, 3949, 2014, 4541, 6814, 5041, 1567, 1800, 2860, 3644, 1951, 3105, 4284, 2921, 813, 1908, 2997, 2975, 1476, 3180, 4215, 2746, 974, 1243, 2637, 2732, 1242, 3557, 4298, 2144, 1916, 1057, 2320, 3029, 1377, 2889, 2939, 1585, 2206, 1353, 1724, 2324, 1125, 1384, 1403, 1435, 1627, 941, 1047, 1389, 786, 746, 876, 1009, 860, 597, 825, 877, 645, 646, 713, 892, 784, 616, 741, 764, 664, 621, 690, 790, 781, 592, 655, 771, 653, 552, 611, 678, 775, 617, 606, 710, 651, 607, 624, 658, 698, 696, 628, 620, 664, 549, 561, 568, 641, 639, 638, 606, 619, 645, 672, 661, 656, 629, 691, 744, 663, 808, 693, 640, 663, 630, 657, 638, 681, 827, 755, 652, 646, 682, 655, 646, 697, 608, 761, 805, 683, 649, 739, 746, 650, 677, 768, 882, 777, 551, 758, 875, 812, 668, 787, 875, 722, 572, 703, 850, 815, 590, 818, 827, 687, 657, 793, 879, 733, 637, 813, 732, 639, 690, 726, 847, 788, 698, 795, 685, 510, 701, 738, 669, 715, 704, 756, 717, 593, 707, 821, 608, 544, 679, 663, 620, 641, 659, 780, 690, 635, 606, 608, 758, 605, 568, 583, 751, 766, 695, 703, 779, 776, 687, 608, 756, 852, 586, 677, 707, 618, 495, 586, 770, 688, 527, 715, 767, 618, 584, 607, 750, 692, 701, 756, 781, 797, 743, 720, 770, 705, 625, 677, 665, 735, 641, 606, 677, 702, 583, 618, 657, 637, 570, 654, 713, 689, 611, 753, 687, 606, 564, 681, 748, 660, 613, 678, 734, 668, 534, 607, 716, 692, 526, 514, 606, 662, 538, 678, 709, 588, 471, 549, 556, 595, 653, 592, 617, 595, 612, 646, 606, 784, 763, 598, 683, 696, 612, 514, 581, 733, 638, 528, 542, 624, 716, 707, 715, 742, 651, 537, 640, 735, 739, 926, 996, 823, 659, 730, 797, 829, 712, 1068, 1214, 970, 684, 822, 1005, 888, 666, 900, 998, 891, 670, 702, 848, 765, 653, 749, 750, 667, 642, 545, 748, 820, 817, 954, 1221, 986, 748, 865, 1400, 1462, 898, 1230, 1337, 983, 726, 1048, 1622, 1504, 854, 899, 841, 691, 645, 875, 1114, 1013, 630, 845, 877, 802, 685, 747, 1028, 1046, 683, 742, 694, 609, 604, 677, 783, 757, 706, 585, 650, 739, 650, 491, 755, 853, 721, 568, 606, 806, 737, 569, 937, 1009, 655, 616, 693, 752, 710, 646, 1013, 1111, 570, 701, 816, 708, 634, 586, 807, 835, 603, 726, 798, 722, 700, 588, 615, 693, 578, 603, 710, 630, 600, 592, 716, 783, 750, 661, 713, 716, 737, 693, 712, 782, 730, 585, 725, 688, 644, 626, 749, 824, 588, 631, 712, 659, 579, 609, 757, 727, 503, 643, 732, 569, 466, 594, 683, 598, 473, 592, 621, 565, 583, 613, 608, 507, 472, 528, 607, 518, 599, 526, 521, 553, 618, 590, 580, 646, 601, 592, 644, 631, 570, 556, 543, 566, 529, 505, 625, 631, 464, 377, 452, 499, 482, 421, 490, 512, 428, 393, 513, 513, 447, 381, 492, 546, 455, 494, 522, 484, 518, 545, 562, 554, 465, 429, 466, 473, 463, 505, 523, 519, 465, 483, 517, 436, 457, 522, 538, 523]"
0.5075508952140808,0.2477891743183136,0.5882734060287476,-0.1297406107187271,0.05899718403816223,0.9586191177368164,-0.36737892031669617,-0.4842485785484314,0.8587360382080078,25.5,-0.42574065923690796,0.8531570434570312,20.0,-0.15036720037460327,0.5227088928222656,23.0,-0.07841247320175171,0.6849288940429688,21.5,0.04632812738418579,0.4197120666503906,27.5,"[454, 566, 621, 600, 553, 596, 622, 566, 572, 544, 630, 670, 671, 686, 635, 583, 590, 636, 622, 567, 508, 585, 643, 558, 639, 676, 545, 478, 490, 474, 555, 555, 511, 511, 512, 510, 511, 551, 500, 459, 510, 513, 476, 504, 550, 594, 496, 446, 527, 585, 567, 561, 602, 606, 567, 553, 524, 591, 590, 546, 652, 659, 602, 556, 521, 566, 526, 412, 604, 642, 516, 536, 536, 464, 525, 503, 584, 589, 505, 523, 520, 531, 602, 609, 585, 568, 592, 578, 435, 459, 508, 512, 574, 589, 593, 558, 437, 448, 471, 525, 558, 571, 576, 502, 561, 502, 561, 608, 635, 591, 620, 641, 589, 533, 571, 584, 619, 616, 548, 561, 567, 555, 572, 513, 580, 634, 568, 548, 425, 510, 609, 519, 541, 575, 515, 460, 525, 503, 512, 450, 494, 556, 578, 542, 582, 516, 481, 410, 458, 531, 534, 543, 540, 534, 536, 522, 425, 481, 469, 471, 548, 524, 567, 485, 478, 561, 524, 496, 556, 618, 568, 534, 570, 614, 551, 518, 559, 543, 509, 458, 458, 554, 581, 494, 657, 595, 533, 528, 619, 684, 605, 574, 766, 677, 477, 514, 594, 670, 543, 541, 650, 619, 511, 475, 455, 657, 602, 524, 570, 566, 622, 515, 539, 612, 598, 552, 578, 580, 564, 534, 542, 540, 511, 552, 506, 599, 524, 449, 514, 496, 499, 493, 491, 588, 616, 533, 523, 510, 546, 541, 507, 517, 613, 580, 563, 640, 541, 520, 502, 539, 496, 512, 524, 521, 463, 465, 506, 518, 516, 537, 604, 514, 440, 503, 561, 490, 470, 573, 532, 427, 514, 564, 615, 644, 579, 578, 542, 527, 629, 642, 690, 798, 875, 940, 678, 854, 1356, 1233, 2456, 1529, 2657, 3062, 2126, 1799, 4990, 5276, 4922, 2118, 4612, 5174, 3981, 2397, 8658, 9890, 4018, 1381, 3600, 4257, 3403, 1781, 6143, 7343, 2909, 3442, 4623, 3918, 2624, 3223, 6090, 5911, 6301, 5988, 9794, 7146, 4362, 5276, 13875, 14737, 4861, 5817, 9033, 6345, 3606, 4843, 12618, 12908, 2195, 4284, 5818, 3916, 1772, 2888, 6407, 6117, 1561, 3814, 4914, 2940, 1112, 2154, 4588, 4424, 1153, 4356, 5332, 3073, 1013, 2770, 4436, 3561, 1295, 3942, 4545, 2490, 930, 2547, 4077, 3269, 3428, 3783, 3708, 2345, 1526, 2908, 4744, 4520, 7043, 4629, 6464, 4909, 2937, 5548, 12519, 13319, 7050, 6097, 8859, 5673, 3187, 6937, 16382, 16709, 3968, 4045, 5295, 3147, 1947, 4152, 9409, 9543, 1860, 1540, 1980, 1249, 1032, 1318, 3065, 3340, 1046, 1429, 1354, 868, 707, 1100, 1504, 1360, 805, 1015, 889, 700, 592, 955, 1038, 761, 732, 658, 720, 685, 536, 690, 900, 899, 553, 599, 741, 607, 596, 661, 783, 676, 547, 555, 694, 665, 646, 550, 684, 668, 595, 624, 585, 567, 602, 576, 552, 635, 652, 774, 679, 488, 698, 744, 702, 639, 699, 759, 723, 523, 689, 733, 643, 738, 947, 1040, 853, 724, 1099, 931, 644, 781, 2761, 3675, 2572, 1580, 2585, 2071, 829, 1191, 4971, 7092, 5805, 2968, 3916, 3962, 1729, 1917, 4385, 7361, 7268, 3557, 3383, 4303, 2047, 1973, 1255, 3280, 4273, 2696, 977, 1607, 1310, 1609, 1686, 2050, 1577, 1843, 2002, 1435, 1017, 1197, 2221, 3587, 2860, 1954, 2391, 1853, 1391, 1406, 2058, 3559, 3161, 1909, 2096, 1969, 1437, 1415, 1489, 2791, 2870, 1881, 1623, 1695, 1128, 1116, 919, 1527, 1700, 1254, 1014, 1151, 874, 846, 769, 795, 828, 843, 801, 796, 820, 880, 811, 837, 789, 669, 667, 808, 995, 896, 934, 1072, 949, 799, 665, 830, 1018, 1015, 815, 837, 813, 691, 580, 745, 792, 730, 691, 674, 709, 738, 649, 620, 674, 681, 591, 699, 641, 686, 646, 598, 715, 624, 652, 636, 578, 583, 605, 633, 699, 647, 566, 557, 552, 555, 614, 658, 658, 540, 660, 656, 670, 681, 658, 713, 718, 603, 647, 649, 644, 580, 603, 757, 722, 549, 613, 611, 552, 591, 639, 701, 642, 615, 685, 691, 618, 638, 681, 750, 752, 763, 824, 763, 584, 664, 814, 836, 765, 781, 655, 682, 529, 599, 697, 688, 595, 603, 569, 681, 662, 557, 547, 638, 664, 567, 575, 696, 661, 647, 609, 610, 654, 577, 634, 773, 830, 738, 598, 597, 680, 665, 610, 676, 678, 683, 694, 572, 668, 724, 649, 635, 550, 665, 763, 648, 711, 755, 671, 657, 619, 664, 716, 710, 655, 694, 704, 670, 649, 712, 668, 650, 656, 747, 776, 634, 630, 649, 577, 596, 708, 799, 777, 671, 670, 750, 670, 698, 772, 796, 745, 673, 643, 753, 706, 671, 702, 735, 601, 663, 725, 666, 709, 663, 700, 677, 603, 588, 621, 601, 646, 702, 778, 779, 673, 573, 530, 587, 554, 543, 665, 717, 598, 580, 560, 468, 530, 559, 577, 606, 634, 580, 619, 557, 469, 511, 690, 742, 807, 700, 603, 629, 644, 562, 663, 802, 707, 628, 593, 683, 731, 548, 582, 688, 590, 581, 641, 692, 721, 578, 527, 594, 672, 1015, 1093, 784, 659, 803, 946, 877, 795, 1453, 1597, 1041, 708, 901, 1352, 1221, 795, 1175, 1382, 1128, 821, 811, 1120, 1079, 590, 924, 1042, 900, 669, 703, 1054, 953, 895, 1115, 1540, 1181, 717, 788, 1750, 1850, 1056, 1399, 1967, 1330, 772, 936, 2128, 2223, 824, 1258, 1344, 938, 845, 848, 1495, 1406, 753, 892, 814, 892, 866, 686, 1086, 1045, 919, 909, 1140, 1264, 944, 788, 1324, 1291, 871, 769, 1079, 1170, 766, 733, 1197, 1192, 868, 667, 884, 949, 785, 702, 1182, 1252, 773, 643, 755, 884, 734, 641, 1060, 1054, 687, 572, 619, 856, 785, 627, 964, 898, 642, 634, 615, 606, 607, 644, 753, 768, 686, 690, 701, 635, 581, 663, 669, 677, 652, 615, 724, 695, 520, 501, 685, 742, 671, 628, 740, 644, 526, 590, 754, 729, 561, 700, 685, 571, 520, 555, 703, 635, 726, 618, 708, 591, 581, 642, 748, 825, 553, 623, 641, 576, 541, 574, 602, 653, 519, 611, 628, 571, 600, 562, 656, 652, 526, 544, 678, 657, 703, 591, 700, 740, 444, 494, 489, 464, 564, 623, 629, 568, 348, 445, 506, 446, 391, 580, 700, 531, 463, 630, 572, 425, 484, 558, 589, 434, 420, 481, 500, 505, 472, 483, 491, 454, 452, 434, 436, 423, 469, 511, 539, 512]"
0.5467193126678467,0.19661331176757812,0.5954177975654602,-0.008451908826828003,-0.0011299923062324524,0.8473921418190002,-0.14428776502609253,-1.01743483543396,1.1115074157714844,22.0,-1.01743483543396,1.421213150024414,23.0,-0.11435294151306152,0.6092548370361328,30.0,-0.10476851463317871,0.6132602691650391,-32.0,-0.06113791465759277,0.45719146728515625,22.75,"[544, 620, 648, 537, 479, 540, 646, 620, 500, 632, 671, 521, 486, 616, 629, 518, 446, 519, 552, 556, 548, 549, 570, 506, 491, 412, 555, 618, 546, 612, 631, 569, 442, 471, 564, 482, 407, 505, 507, 496, 527, 566, 605, 545, 470, 479, 466, 485, 582, 503, 480, 549, 504, 538, 591, 552, 459, 565, 525, 505, 482, 541, 577, 492, 501, 560, 567, 489, 498, 559, 571, 565, 586, 631, 526, 470, 483, 520, 536, 510, 549, 592, 614, 544, 531, 586, 585, 578, 546, 485, 546, 586, 517, 577, 573, 567, 542, 470, 470, 470, 482, 460, 461, 520, 484, 482, 530, 536, 472, 467, 522, 579, 538, 539, 513, 555, 558, 470, 495, 511, 554, 496, 584, 614, 571, 493, 470, 575, 552, 521, 556, 541, 552, 570, 503, 523, 478, 581, 518, 456, 535, 555, 544, 552, 453, 480, 462, 505, 613, 569, 547, 508, 498, 472, 493, 519, 548, 516, 557, 582, 573, 504, 517, 550, 539, 512, 479, 546, 546, 525, 638, 650, 517, 517, 623, 582, 571, 636, 704, 602, 501, 578, 605, 612, 622, 634, 652, 585, 610, 669, 583, 580, 550, 524, 527, 557, 606, 607, 538, 547, 509, 534, 564, 535, 446, 528, 604, 546, 512, 443, 606, 567, 511, 485, 549, 642, 558, 513, 546, 655, 701, 595, 572, 675, 475, 447, 477, 563, 609, 513, 496, 523, 489, 458, 541, 628, 582, 566, 580, 579, 537, 479, 525, 592, 498, 483, 487, 539, 564, 533, 515, 571, 557, 563, 506, 501, 502, 603, 542, 583, 546, 547, 554, 497, 512, 576, 608, 545, 490, 539, 654, 607, 560, 546, 508, 510, 515, 534, 549, 557, 582, 590, 650, 585, 559, 568, 572, 659, 695, 731, 779, 764, 763, 833, 897, 846, 1571, 1212, 1645, 2042, 1654, 1278, 2777, 2844, 3709, 1544, 2720, 4479, 3560, 1937, 6278, 7097, 4067, 1234, 3994, 4900, 3995, 2168, 6788, 7712, 8609, 5981, 11689, 8183, 4884, 5477, 15631, 17857, 11262, 7597, 15142, 10258, 6100, 6981, 20843, 23659, 6292, 3348, 7196, 4908, 3484, 3643, 10924, 12618, 1701, 1746, 2349, 1859, 1184, 1538, 1633, 1893, 1061, 4118, 5443, 3522, 837, 2990, 5237, 4439, 999, 4944, 6005, 3465, 933, 3302, 5588, 4508, 1556, 5443, 5710, 2668, 1142, 3109, 4862, 3341, 1496, 4345, 4474, 2126, 1104, 2298, 3722, 2748, 1227, 2465, 2643, 1539, 887, 1251, 2067, 1813, 1870, 1783, 1430, 1090, 1015, 1390, 1301, 1442, 1317, 1022, 996, 926, 887, 842, 909, 1249, 1227, 1273, 1787, 1240, 782, 886, 1995, 2220, 1053, 1551, 1646, 986, 668, 1116, 2066, 1927, 596, 967, 991, 834, 660, 859, 1416, 1194, 562, 683, 675, 650, 640, 711, 909, 784, 650, 790, 766, 577, 616, 779, 946, 763, 673, 766, 728, 604, 644, 690, 769, 632, 964, 1462, 1321, 796, 906, 990, 887, 657, 1567, 2327, 1904, 841, 1430, 1614, 1067, 675, 1369, 1897, 1444, 878, 1349, 1327, 843, 720, 1746, 2115, 1591, 1306, 1548, 1142, 791, 956, 3135, 3924, 2846, 1986, 2246, 1625, 1314, 1438, 3398, 3713, 2451, 1997, 1936, 1913, 1789, 1662, 2133, 2075, 1843, 1674, 1134, 1844, 1594, 1261, 1716, 2524, 2215, 1774, 1301, 1683, 2183, 1287, 1577, 1981, 1626, 1777, 1520, 1793, 2226, 1441, 1018, 1097, 993, 695, 1046, 1256, 1215, 1083, 1233, 1212, 1759, 1771, 1349, 1147, 971, 1302, 1136, 1230, 1692, 2047, 1589, 905, 708, 1125, 915, 1227, 1667, 1607, 1055, 710, 880, 921, 825, 1173, 1167, 873, 663, 881, 981, 672, 695, 963, 818, 768, 774, 862, 971, 730, 611, 788, 805, 718, 705, 670, 883, 894, 668, 787, 856, 683, 626, 779, 928, 907, 710, 659, 795, 700, 580, 711, 797, 821, 796, 707, 764, 960, 712, 594, 735, 782, 709, 740, 639, 764, 725, 567, 747, 673, 710, 630, 644, 779, 735, 657, 715, 774, 774, 697, 761, 738, 627, 638, 671, 796, 768, 750, 778, 765, 697, 623, 651, 722, 731, 743, 696, 650, 749, 698, 674, 760, 699, 804, 818, 662, 745, 710, 646, 661, 656, 644, 637, 579, 712, 733, 577, 625, 723, 645, 708, 706, 704, 770, 738, 662, 711, 624, 687, 640, 648, 684, 672, 655, 653, 612, 556, 547, 638, 697, 686, 600, 615, 577, 558, 667, 595, 510, 538, 554, 600, 505, 577, 759, 706, 579, 605, 697, 690, 557, 570, 693, 764, 640, 717, 801, 882, 823, 733, 728, 903, 652, 773, 957, 687, 752, 806, 675, 720, 651, 860, 913, 479, 558, 627, 563, 518, 604, 739, 702, 592, 585, 662, 710, 589, 510, 677, 684, 628, 633, 697, 682, 635, 559, 739, 763, 667, 549, 631, 829, 766, 627, 812, 892, 644, 552, 579, 700, 624, 584, 706, 716, 651, 574, 564, 667, 554, 603, 697, 736, 653, 623, 613, 648, 637, 558, 698, 728, 560, 602, 644, 649, 663, 555, 668, 695, 562, 517, 565, 633, 538, 517, 608, 617, 639, 661, 652, 608, 556, 586, 682, 691, 606, 546, 644, 687, 591, 595, 676, 696, 658, 700, 640, 775, 703, 668, 727, 626, 1039, 1067, 1269, 1355, 1188, 763, 1833, 1951, 1503, 1216, 1656, 1864, 1517, 931, 2535, 2873, 1681, 906, 1493, 1918, 1600, 867, 2490, 2962, 1411, 877, 1331, 1475, 1129, 839, 2092, 2390, 960, 886, 1225, 1096, 681, 700, 1326, 1462, 1136, 705, 971, 1025, 833, 662, 1163, 1514, 1227, 873, 1091, 1243, 1133, 832, 1458, 1788, 998, 892, 1121, 1195, 996, 747, 1218, 1342, 797, 780, 927, 882, 640, 620, 922, 1030, 752, 617, 589, 581, 572, 590, 796, 853, 596, 584, 615, 615, 581, 548, 636, 649, 561, 553, 569, 564, 550, 547, 630, 646, 661, 505, 542, 543, 567, 566, 725, 831, 532, 584, 587, 621, 529, 544, 802, 731, 515, 557, 564, 639, 574, 511, 608, 552, 563, 534, 564, 625, 618, 503, 585, 596, 556, 674, 627, 666, 716, 556, 564, 540, 523, 603, 552, 513, 569, 522, 624, 611, 572, 508, 546, 635, 592, 434, 562, 652, 508, 501, 663, 615, 506, 478, 554, 649, 517, 546, 543, 506, 461, 502, 597, 576, 394, 488, 495, 408, 414, 574, 595, 496, 430, 508, 487, 466, 455, 423, 444, 419, 413, 418, 428, 497, 494, 456, 438, 403, 488, 494, 433, 483, 485, 455, 517, 498]"
0.5644505023956299,0.1557244062423706,0.5463167428970337,0.031876225024461746,-0.06537465006113052,0.6551731824874878,-0.0807531327009201,-0.37967097759246826,0.7633209228515625,16.5,-0.29269587993621826,0.6832122802734375,22.0,-0.26065242290496826,0.7069587707519531,21.5,-0.1951349973678589,0.6005287170410156,23.5,0.08066761493682861,0.5471706390380859,16.75,"[485, 732, 756, 656, 706, 653, 752, 730, 387, 558, 663, 616, 548, 584, 713, 654, 508, 624, 639, 568, 576, 662, 626, 627, 527, 539, 625, 637, 591, 520, 531, 584, 486, 442, 495, 541, 532, 471, 487, 519, 503, 487, 451, 518, 565, 507, 534, 519, 540, 547, 475, 450, 547, 528, 477, 462, 595, 514, 469, 476, 550, 568, 487, 561, 480, 439, 501, 530, 481, 482, 532, 532, 525, 533, 547, 591, 528, 500, 569, 541, 570, 494, 511, 593, 564, 538, 504, 487, 599, 580, 621, 569, 615, 593, 573, 652, 474, 569, 619, 580, 562, 498, 610, 659, 534, 563, 697, 591, 595, 603, 606, 536, 604, 655, 644, 561, 590, 627, 602, 624, 528, 541, 558, 521, 539, 585, 617, 559, 524, 472, 488, 497, 447, 450, 491, 543, 552, 537, 567, 573, 567, 633, 706, 626, 518, 525, 594, 579, 562, 676, 690, 600, 571, 565, 598, 610, 653, 630, 653, 666, 623, 573, 505, 591, 676, 582, 528, 622, 671, 746, 643, 697, 625, 601, 612, 553, 587, 643, 667, 715, 589, 534, 639, 540, 544, 534, 608, 628, 561, 566, 535, 544, 534, 486, 550, 670, 616, 528, 534, 503, 468, 538, 638, 609, 507, 556, 641, 501, 489, 453, 499, 530, 491, 503, 554, 548, 567, 498, 455, 558, 548, 464, 544, 567, 483, 438, 433, 512, 480, 484, 530, 495, 549, 475, 423, 522, 556, 511, 479, 508, 529, 564, 635, 582, 538, 442, 560, 625, 522, 553, 580, 570, 536, 497, 650, 653, 486, 466, 463, 445, 432, 447, 561, 574, 421, 479, 555, 453, 441, 437, 471, 493, 461, 498, 573, 594, 518, 491, 604, 543, 522, 547, 551, 547, 596, 582, 567, 593, 595, 561, 518, 523, 555, 647, 661, 595, 809, 663, 692, 900, 784, 710, 1102, 1167, 2219, 955, 1643, 2534, 2313, 1029, 3035, 3715, 4365, 2068, 3040, 4243, 3916, 2048, 5629, 7039, 5238, 3132, 4673, 4609, 4082, 3065, 6873, 8346, 4438, 2922, 4156, 3954, 3476, 2942, 5608, 6775, 3348, 2061, 2579, 2136, 2312, 2432, 5260, 5885, 2845, 2497, 3358, 2430, 1804, 3188, 6662, 6499, 1472, 2136, 2307, 2299, 1245, 3284, 5851, 4896, 2259, 2812, 3482, 2192, 1294, 2877, 5970, 5571, 2512, 4220, 5331, 3284, 1438, 3427, 7057, 6554, 2314, 2334, 2777, 1809, 1098, 1976, 4113, 4145, 2184, 1588, 1451, 1343, 1137, 1106, 1727, 2263, 1890, 1136, 2118, 1881, 1018, 990, 2237, 2850, 1650, 1269, 1555, 1402, 1005, 1044, 1681, 2061, 1441, 1678, 1239, 819, 931, 1127, 1316, 1100, 922, 1282, 1214, 879, 763, 1018, 1337, 1129, 794, 1199, 1271, 908, 710, 1045, 1563, 1376, 740, 1105, 1209, 888, 742, 952, 1563, 1448, 657, 709, 702, 617, 660, 756, 810, 773, 631, 893, 839, 625, 686, 753, 704, 545, 1381, 2376, 2145, 1050, 1366, 1567, 1124, 707, 2157, 3934, 3442, 1438, 2399, 2650, 1476, 790, 1760, 2959, 2538, 1133, 1864, 1961, 1089, 736, 947, 1555, 1485, 890, 915, 998, 762, 672, 1058, 1468, 1342, 840, 852, 841, 812, 858, 1957, 2668, 2204, 1390, 1182, 1312, 1554, 1412, 4261, 6060, 5024, 2666, 2060, 2790, 3210, 2453, 5265, 7608, 6508, 3301, 2497, 3362, 3629, 2843, 2609, 4530, 4587, 2539, 1508, 1971, 2025, 1856, 1022, 2178, 2641, 1753, 894, 1072, 1175, 1173, 1033, 1890, 1941, 1099, 684, 887, 981, 884, 1037, 1667, 1591, 1192, 1164, 848, 890, 969, 867, 921, 977, 1026, 988, 661, 757, 841, 797, 743, 571, 591, 583, 670, 685, 643, 656, 797, 837, 769, 655, 728, 803, 683, 788, 902, 797, 628, 646, 826, 797, 666, 712, 827, 691, 585, 618, 763, 814, 659, 959, 1117, 1035, 796, 785, 919, 1281, 1194, 1079, 1066, 1061, 901, 745, 889, 1256, 1289, 900, 941, 794, 770, 716, 745, 902, 876, 799, 919, 837, 729, 680, 817, 861, 737, 649, 710, 616, 665, 596, 574, 691, 653, 702, 769, 806, 690, 597, 547, 711, 704, 678, 661, 741, 743, 621, 553, 751, 795, 765, 699, 705, 821, 824, 710, 732, 852, 787, 706, 723, 770, 806, 782, 665, 736, 697, 630, 627, 611, 738, 691, 604, 708, 553, 643, 687, 613, 626, 646, 570, 556, 506, 580, 728, 712, 566, 583, 634, 562, 586, 564, 545, 591, 599, 493, 563, 651, 592, 626, 612, 609, 686, 608, 665, 701, 648, 691, 582, 573, 591, 552, 636, 663, 703, 655, 623, 591, 565, 610, 678, 712, 666, 595, 619, 565, 595, 621, 657, 671, 675, 603, 655, 674, 617, 555, 649, 727, 535, 600, 701, 572, 608, 644, 614, 624, 650, 620, 590, 608, 674, 666, 589, 693, 674, 573, 657, 740, 650, 514, 568, 698, 569, 583, 717, 757, 566, 492, 580, 640, 448, 573, 572, 670, 690, 560, 522, 533, 583, 597, 558, 623, 769, 629, 575, 638, 596, 576, 682, 701, 626, 728, 779, 739, 646, 588, 654, 658, 674, 775, 799, 806, 562, 528, 518, 632, 692, 787, 823, 769, 686, 621, 681, 677, 663, 676, 713, 770, 673, 586, 571, 611, 606, 725, 615, 602, 725, 682, 738, 705, 638, 737, 751, 782, 935, 983, 1151, 1073, 769, 853, 1331, 1311, 951, 1167, 1398, 1024, 777, 1046, 1536, 1425, 934, 1088, 1262, 915, 730, 1020, 1447, 1315, 886, 816, 1025, 1030, 778, 808, 1323, 1417, 844, 874, 1034, 1039, 759, 744, 1317, 1380, 739, 1065, 1164, 904, 769, 972, 1619, 1543, 816, 919, 876, 715, 828, 905, 1101, 1102, 851, 789, 866, 753, 815, 777, 875, 1041, 828, 951, 944, 712, 781, 646, 855, 883, 747, 1016, 940, 717, 678, 745, 897, 663, 798, 942, 849, 695, 750, 843, 829, 719, 806, 799, 790, 704, 665, 726, 879, 917, 693, 675, 711, 679, 550, 572, 757, 751, 545, 537, 617, 694, 632, 673, 652, 590, 515, 496, 518, 645, 508, 519, 669, 567, 493, 573, 681, 616, 583, 579, 641, 681, 499, 533, 597, 528, 503, 585, 707, 674, 574, 567, 571, 651, 580, 535, 701, 667, 496, 565, 519, 526, 540, 500, 559, 540, 444, 584, 555, 518, 473, 519, 713, 592, 425, 478, 469, 434, 401, 425, 528, 483, 346, 398, 380, 408, 423, 424, 501, 428, 426, 418, 383, 387, 496, 519, 488, 440, 424, 390, 462, 453, 469, 492, 509, 518]"
0.5675950646400452,0.0716397613286972,0.552729070186615,0.02114841900765896,-0.20517009496688843,0.5485343337059021,-0.10295246541500092,-0.3217703104019165,0.7548809051513672,21.0,-0.17457067966461182,0.6713390350341797,27.75,-0.15869200229644775,0.9840488433837891,19.5,0.049733519554138184,0.6102561950683594,24.0,0.16760766506195068,0.6580352783203125,20.0,"[607, 666, 625, 623, 693, 617, 625, 665, 566, 655, 727, 655, 678, 701, 725, 670, 496, 537, 614, 628, 553, 587, 627, 550, 499, 404, 503, 631, 542, 458, 544, 597, 518, 489, 599, 541, 488, 484, 542, 581, 616, 540, 531, 553, 475, 475, 484, 533, 570, 573, 541, 523, 477, 518, 529, 439, 533, 525, 474, 517, 456, 447, 472, 491, 489, 380, 423, 462, 463, 410, 406, 524, 503, 488, 519, 526, 554, 520, 464, 509, 544, 451, 487, 542, 616, 565, 518, 591, 644, 574, 555, 530, 548, 591, 464, 569, 629, 548, 510, 529, 515, 543, 503, 553, 600, 552, 539, 639, 660, 596, 483, 514, 594, 570, 530, 590, 553, 595, 574, 509, 570, 537, 506, 544, 497, 485, 533, 529, 490, 523, 547, 530, 496, 593, 620, 495, 482, 554, 611, 493, 539, 679, 627, 518, 473, 538, 550, 510, 527, 597, 522, 445, 638, 627, 628, 560, 677, 617, 507, 548, 549, 497, 537, 553, 619, 565, 430, 560, 588, 500, 574, 552, 596, 455, 396, 663, 661, 603, 571, 592, 599, 555, 552, 688, 500, 458, 513, 582, 511, 539, 606, 545, 555, 539, 502, 505, 528, 644, 525, 472, 583, 609, 560, 473, 554, 641, 575, 501, 603, 655, 571, 523, 613, 667, 498, 536, 580, 507, 538, 555, 536, 542, 525, 575, 498, 597, 662, 556, 469, 486, 534, 507, 553, 553, 526, 433, 549, 618, 480, 431, 458, 524, 476, 416, 481, 570, 585, 533, 515, 520, 571, 585, 542, 465, 517, 533, 527, 588, 568, 469, 509, 536, 533, 545, 527, 557, 570, 556, 581, 588, 574, 555, 513, 567, 612, 663, 661, 543, 528, 557, 516, 540, 649, 674, 557, 493, 504, 495, 510, 534, 581, 600, 585, 561, 467, 433, 510, 512, 465, 573, 597, 547, 571, 521, 783, 586, 548, 719, 831, 597, 652, 859, 1770, 722, 1243, 2015, 2004, 838, 1879, 2512, 3496, 1467, 2786, 4313, 3849, 1602, 4865, 5849, 6328, 3075, 6075, 6880, 4814, 3545, 10993, 12423, 8239, 3390, 7757, 7605, 5554, 3752, 13110, 15535, 6802, 3243, 6797, 5734, 4512, 2989, 10460, 12613, 4080, 4812, 6921, 4643, 2478, 5241, 11230, 10811, 2442, 4519, 5789, 4149, 1629, 5447, 10739, 9369, 3323, 3951, 6551, 4928, 2134, 3841, 8295, 8453, 3458, 6192, 9640, 6603, 2169, 4981, 11247, 10993, 1978, 5672, 7854, 4926, 1400, 4117, 8465, 7722, 1242, 3178, 3794, 2354, 854, 2288, 3939, 3113, 1117, 1122, 1270, 1158, 665, 1193, 2246, 2084, 1244, 976, 1548, 1131, 681, 817, 2010, 2338, 941, 779, 970, 885, 777, 742, 1120, 1290, 698, 810, 801, 725, 738, 690, 778, 789, 739, 692, 781, 721, 696, 664, 718, 841, 793, 745, 654, 593, 614, 694, 685, 749, 670, 627, 659, 560, 490, 609, 685, 699, 521, 662, 764, 627, 548, 708, 752, 694, 783, 1372, 1512, 897, 785, 1035, 904, 792, 1274, 2523, 2413, 1153, 1282, 1580, 1240, 982, 1203, 2045, 1943, 1091, 1205, 1352, 1058, 907, 777, 1058, 1064, 758, 758, 805, 718, 625, 765, 1333, 1640, 1002, 662, 1116, 1049, 834, 1447, 1958, 2453, 1645, 1206, 1967, 1647, 1210, 2462, 2808, 2710, 1802, 1538, 2691, 2375, 1638, 1720, 2105, 2351, 1487, 964, 1781, 1556, 1268, 1138, 1499, 2204, 1855, 1095, 1544, 1420, 1259, 1142, 1349, 1750, 1663, 1221, 1127, 915, 1150, 1146, 1118, 1388, 1383, 1134, 947, 735, 1091, 889, 948, 1101, 1178, 941, 875, 818, 863, 872, 986, 1318, 1213, 799, 972, 978, 769, 763, 830, 1045, 932, 814, 940, 833, 672, 663, 661, 748, 732, 684, 733, 641, 579, 725, 829, 782, 757, 842, 870, 766, 606, 743, 861, 784, 740, 775, 869, 876, 738, 700, 756, 747, 717, 793, 749, 770, 746, 788, 586, 621, 700, 703, 645, 678, 804, 918, 738, 742, 797, 620, 737, 759, 824, 762, 737, 679, 583, 693, 725, 578, 666, 753, 776, 702, 692, 719, 671, 538, 640, 633, 718, 742, 704, 650, 635, 635, 623, 616, 667, 677, 656, 574, 611, 710, 635, 665, 590, 651, 620, 580, 631, 573, 618, 687, 590, 704, 797, 737, 727, 726, 666, 731, 579, 693, 835, 685, 729, 865, 768, 786, 644, 654, 700, 639, 669, 724, 784, 603, 716, 722, 601, 608, 674, 648, 622, 546, 593, 704, 742, 582, 568, 603, 603, 528, 616, 711, 729, 630, 624, 762, 627, 569, 607, 636, 649, 741, 731, 691, 646, 585, 636, 664, 611, 658, 710, 666, 595, 602, 595, 656, 690, 715, 630, 647, 630, 542, 559, 621, 603, 594, 532, 488, 445, 499, 520, 477, 508, 539, 540, 544, 528, 617, 571, 551, 546, 513, 671, 737, 697, 655, 730, 699, 674, 772, 683, 721, 733, 666, 753, 616, 678, 833, 691, 653, 710, 802, 775, 661, 623, 773, 731, 690, 753, 740, 635, 624, 781, 768, 588, 623, 803, 713, 659, 733, 780, 737, 622, 766, 887, 677, 576, 609, 714, 670, 523, 879, 1008, 637, 616, 649, 648, 652, 600, 783, 879, 677, 628, 647, 666, 574, 700, 764, 772, 712, 573, 704, 777, 691, 700, 963, 974, 998, 560, 811, 1102, 1020, 701, 1204, 1494, 902, 643, 791, 971, 943, 703, 950, 1184, 762, 762, 810, 700, 632, 630, 740, 808, 791, 788, 923, 881, 707, 650, 889, 977, 722, 687, 852, 862, 696, 582, 850, 953, 799, 1543, 1820, 1314, 858, 1162, 1637, 1598, 791, 2191, 2405, 1471, 723, 1457, 2249, 1839, 750, 1554, 1805, 1318, 765, 1141, 1792, 1569, 747, 1121, 1235, 905, 709, 924, 1316, 1164, 870, 1024, 949, 737, 627, 725, 986, 875, 803, 973, 912, 730, 605, 669, 799, 695, 771, 841, 756, 655, 639, 621, 729, 696, 674, 717, 630, 593, 530, 576, 652, 625, 732, 623, 665, 663, 581, 669, 707, 763, 634, 638, 708, 627, 595, 639, 630, 669, 632, 675, 659, 491, 581, 569, 621, 643, 495, 496, 577, 499, 435, 475, 576, 614, 554, 584, 545, 467, 486, 561, 587, 557, 535, 562, 577, 511, 492, 542, 568, 563, 547, 561, 525, 504, 542, 531, 472, 486, 493, 427, 471, 424, 437, 430, 387, 489, 398, 440, 513, 486, 428, 464, 468, 458, 452, 526, 529, 505, 475, 462, 550, 536, 398, 434, 554, 480, 397, 449, 513, 498]"
0.49138420820236206,-0.009700950235128403,0.7157933115959167,-0.19574770331382751,-0.3039020299911499,0.6943480968475342,-0.378312885761261,-0.3698081970214844,0.7081031799316406,17.75,-0.2283306121826172,0.6257057189941406,23.0,-0.14836502075195312,0.6988048553466797,-29.25,-0.121185302734375,0.6920814514160156,28.75,-0.11646461486816406,0.5521774291992188,31.75,"[474, 568, 677, 645, 474, 643, 683, 575, 471, 565, 601, 578, 524, 524, 622, 597, 420, 542, 525, 511, 620, 589, 546, 499, 593, 605, 499, 598, 643, 508, 529, 597, 547, 509, 504, 523, 480, 441, 483, 569, 572, 540, 605, 646, 534, 439, 518, 603, 533, 486, 571, 517, 495, 468, 462, 618, 570, 547, 591, 659, 636, 554, 564, 611, 517, 492, 509, 628, 586, 520, 537, 520, 461, 468, 527, 563, 533, 509, 573, 560, 503, 541, 539, 560, 548, 496, 566, 545, 558, 555, 579, 587, 516, 527, 528, 516, 487, 486, 542, 524, 521, 542, 499, 477, 576, 488, 490, 574, 582, 466, 541, 635, 563, 478, 415, 519, 566, 519, 554, 608, 518, 581, 547, 553, 579, 545, 645, 574, 579, 527, 478, 540, 530, 494, 577, 598, 649, 663, 604, 552, 616, 608, 580, 556, 615, 629, 588, 640, 638, 572, 428, 530, 594, 554, 547, 540, 563, 563, 505, 587, 480, 488, 586, 492, 468, 486, 591, 586, 504, 507, 646, 552, 507, 575, 615, 632, 594, 525, 499, 534, 590, 573, 551, 615, 548, 498, 526, 545, 526, 511, 575, 602, 493, 478, 576, 558, 492, 479, 547, 539, 515, 571, 532, 558, 595, 575, 559, 534, 534, 519, 485, 516, 597, 607, 470, 502, 594, 520, 523, 578, 623, 564, 519, 595, 584, 617, 552, 489, 624, 659, 504, 502, 590, 691, 573, 522, 669, 597, 510, 508, 599, 572, 454, 564, 617, 587, 591, 502, 621, 556, 518, 540, 616, 596, 567, 578, 601, 504, 477, 526, 556, 591, 522, 533, 593, 507, 517, 586, 521, 510, 529, 555, 647, 626, 644, 684, 642, 596, 578, 622, 554, 575, 625, 622, 588, 559, 581, 551, 571, 560, 611, 543, 596, 532, 491, 582, 571, 597, 607, 577, 523, 571, 610, 607, 580, 589, 563, 509, 496, 602, 565, 576, 908, 645, 789, 982, 1046, 725, 1026, 1252, 2459, 894, 1695, 3000, 2804, 1063, 3500, 4227, 3891, 1420, 2942, 5459, 4624, 1700, 6928, 7793, 4395, 5273, 6216, 7279, 4562, 6343, 15204, 14128, 11677, 9730, 14006, 13966, 9556, 11916, 30511, 30335, 12324, 5419, 11498, 13782, 10277, 7092, 23230, 25640, 5285, 3964, 6875, 7494, 4806, 3532, 8753, 9524, 3650, 5496, 8342, 5509, 2608, 4387, 11087, 11169, 2813, 4515, 6684, 4240, 1688, 3521, 8204, 8232, 2376, 6712, 8424, 4942, 1507, 4793, 9045, 7852, 1779, 7143, 8453, 4942, 1451, 4911, 9180, 7615, 1109, 3993, 4868, 3279, 1068, 3333, 6437, 5409, 848, 1870, 2118, 1619, 665, 1959, 3531, 2892, 792, 979, 990, 865, 554, 960, 1708, 1470, 725, 830, 815, 629, 549, 749, 1022, 939, 716, 787, 698, 622, 620, 718, 773, 669, 650, 846, 797, 605, 676, 754, 701, 559, 557, 796, 707, 529, 625, 727, 764, 557, 733, 773, 709, 736, 673, 681, 731, 637, 653, 684, 603, 723, 645, 648, 634, 595, 576, 567, 565, 569, 628, 662, 603, 565, 516, 597, 737, 627, 531, 589, 629, 557, 928, 1547, 1578, 882, 783, 1016, 943, 806, 1488, 2996, 2944, 1320, 1144, 1612, 1445, 1056, 2373, 4218, 3670, 1290, 1461, 1774, 1968, 1375, 3221, 5431, 4350, 1271, 1645, 1895, 2454, 1389, 2968, 4835, 3894, 1373, 1476, 2058, 2568, 1350, 2468, 3378, 2813, 1944, 1374, 1700, 2167, 1358, 2106, 2544, 2481, 2311, 1684, 1336, 1672, 1375, 1460, 1644, 1783, 1871, 1507, 1426, 1121, 1349, 1523, 2079, 1988, 1671, 1394, 1773, 1648, 1527, 1345, 1752, 1575, 1079, 1174, 1569, 1530, 1199, 880, 797, 671, 618, 876, 912, 862, 847, 696, 691, 695, 594, 687, 685, 629, 669, 724, 751, 663, 602, 511, 642, 719, 713, 591, 495, 523, 574, 452, 636, 768, 684, 689, 656, 699, 702, 538, 600, 767, 726, 789, 641, 783, 849, 633, 576, 742, 723, 764, 756, 871, 972, 894, 681, 618, 707, 691, 684, 743, 753, 712, 589, 672, 769, 692, 740, 719, 670, 557, 647, 794, 766, 638, 699, 675, 729, 717, 744, 764, 734, 730, 717, 751, 697, 777, 789, 714, 748, 764, 687, 789, 720, 668, 694, 731, 694, 692, 651, 552, 620, 600, 591, 596, 609, 605, 657, 693, 658, 617, 625, 713, 696, 664, 693, 678, 653, 664, 687, 704, 700, 742, 774, 675, 641, 592, 688, 628, 602, 707, 706, 757, 763, 664, 639, 673, 708, 778, 640, 650, 699, 651, 561, 682, 805, 678, 561, 618, 641, 629, 612, 732, 764, 670, 555, 752, 698, 644, 656, 826, 875, 607, 554, 649, 704, 631, 558, 666, 725, 612, 530, 585, 653, 605, 542, 584, 650, 609, 516, 520, 580, 629, 575, 467, 563, 615, 576, 551, 603, 593, 605, 596, 593, 594, 613, 599, 674, 734, 660, 618, 636, 554, 636, 609, 550, 637, 635, 676, 670, 500, 631, 659, 603, 638, 670, 745, 671, 632, 639, 593, 596, 639, 674, 711, 656, 701, 569, 549, 628, 717, 629, 634, 672, 666, 592, 557, 622, 676, 572, 660, 703, 682, 769, 717, 705, 617, 630, 809, 768, 582, 591, 640, 715, 679, 616, 709, 720, 576, 560, 645, 643, 633, 630, 764, 711, 572, 605, 682, 672, 527, 571, 715, 649, 602, 666, 709, 701, 607, 650, 753, 631, 598, 623, 711, 675, 570, 613, 820, 828, 557, 772, 832, 704, 657, 826, 995, 899, 549, 742, 764, 683, 722, 764, 907, 748, 749, 867, 1109, 929, 692, 753, 1247, 1297, 1053, 1280, 1885, 1310, 734, 1063, 2077, 2236, 991, 1312, 1894, 1507, 831, 1087, 2105, 2121, 745, 920, 1253, 1100, 699, 777, 1252, 1237, 691, 840, 953, 850, 753, 750, 973, 955, 769, 814, 800, 724, 704, 700, 740, 850, 778, 732, 737, 748, 705, 742, 669, 766, 788, 659, 627, 649, 668, 702, 624, 787, 650, 709, 821, 780, 630, 669, 817, 777, 538, 711, 896, 820, 568, 729, 881, 732, 601, 616, 742, 712, 529, 618, 694, 610, 618, 616, 550, 597, 584, 532, 501, 592, 524, 633, 605, 485, 583, 581, 583, 563, 426, 557, 551, 450, 434, 345, 461, 541, 447, 465, 519, 450, 374, 380, 471, 539, 397, 430, 463, 392, 407, 396, 447, 466, 449, 506, 450, 403, 474, 541, 596, 468, 466, 498, 425, 416, 503, 447, 460, 495, 439, 489, 512, 488, 408, 432, 449, 461]"
0.4492451250553131,-0.08260485529899597,0.7134003043174744,-0.28968894481658936,-0.413291871547699,0.5327688455581665,-0.47200512886047363,-0.5655803680419922,0.8232593536376953,18.75,-0.3866233825683594,1.5697002410888672,16.0,-0.08736038208007812,0.6195545196533203,-26.75,-0.07763290405273438,1.5501022338867188,16.0,0.6675205230712891,0.6281375885009766,16.75,"[623, 630, 543, 483, 561, 484, 544, 625, 558, 572, 558, 574, 605, 614, 619, 600, 527, 563, 540, 561, 577, 584, 581, 548, 486, 516, 555, 543, 591, 523, 444, 503, 420, 474, 530, 459, 438, 472, 446, 439, 570, 457, 513, 601, 504, 536, 536, 521, 518, 435, 484, 580, 621, 558, 501, 521, 595, 565, 525, 482, 573, 564, 476, 554, 491, 491, 558, 555, 496, 478, 524, 584, 570, 529, 578, 486, 562, 625, 566, 591, 505, 569, 589, 559, 568, 516, 519, 543, 461, 570, 660, 553, 559, 551, 521, 562, 478, 581, 580, 525, 530, 539, 569, 545, 562, 649, 634, 539, 512, 508, 588, 578, 515, 588, 637, 587, 480, 521, 665, 569, 448, 489, 618, 609, 494, 541, 544, 470, 476, 399, 519, 564, 438, 414, 430, 481, 540, 535, 576, 554, 491, 573, 501, 480, 558, 549, 556, 471, 506, 533, 430, 458, 496, 505, 550, 572, 579, 535, 565, 574, 556, 557, 521, 499, 562, 556, 501, 494, 602, 565, 571, 521, 519, 578, 583, 585, 545, 568, 502, 506, 562, 640, 683, 543, 591, 506, 545, 648, 641, 599, 617, 594, 538, 427, 524, 665, 667, 510, 536, 591, 554, 498, 551, 586, 515, 555, 584, 609, 626, 552, 576, 567, 514, 514, 578, 572, 613, 576, 529, 579, 600, 572, 487, 506, 609, 541, 502, 520, 543, 517, 463, 537, 641, 620, 531, 526, 565, 532, 543, 576, 597, 711, 557, 531, 550, 643, 623, 536, 558, 612, 634, 579, 482, 543, 588, 544, 536, 567, 554, 533, 595, 574, 481, 494, 498, 512, 578, 550, 602, 636, 550, 491, 669, 654, 562, 613, 658, 648, 574, 546, 645, 657, 538, 520, 615, 688, 622, 522, 523, 497, 544, 531, 527, 555, 538, 478, 511, 554, 521, 506, 503, 480, 490, 454, 534, 608, 637, 635, 559, 474, 537, 532, 519, 510, 632, 655, 587, 545, 466, 502, 883, 548, 807, 1038, 933, 586, 920, 1138, 2772, 668, 1808, 3245, 3109, 679, 3395, 4485, 5162, 857, 2881, 6190, 5928, 832, 6343, 8548, 4534, 4775, 5126, 5574, 4927, 5794, 11754, 10698, 11602, 12757, 17291, 15592, 8820, 15927, 36965, 35011, 14234, 14052, 20706, 19103, 10895, 17675, 42489, 40907, 6027, 6718, 10308, 9793, 4702, 8757, 19524, 18221, 2301, 1792, 3859, 3516, 1968, 1704, 3485, 4195, 3286, 5869, 8298, 5649, 1801, 3599, 6660, 7033, 3131, 8233, 9728, 6137, 1568, 6111, 9501, 7020, 2526, 8098, 8883, 5189, 1633, 6248, 10020, 7303, 1592, 4597, 4906, 2650, 984, 3240, 5422, 4106, 1052, 1539, 1499, 837, 523, 992, 1539, 1321, 793, 941, 914, 817, 618, 790, 977, 886, 737, 843, 846, 765, 662, 749, 881, 739, 656, 737, 792, 747, 673, 660, 768, 763, 581, 542, 618, 636, 617, 621, 750, 749, 591, 534, 636, 641, 644, 710, 674, 683, 650, 603, 660, 650, 695, 656, 586, 634, 596, 618, 618, 507, 630, 661, 506, 651, 572, 553, 621, 661, 656, 696, 715, 709, 687, 597, 604, 722, 677, 587, 653, 717, 804, 907, 801, 633, 645, 637, 625, 594, 1335, 1927, 1746, 1006, 968, 1009, 979, 962, 2597, 5025, 4688, 1958, 1739, 2053, 2619, 1890, 3724, 7775, 6981, 2490, 2320, 3099, 4255, 2442, 2370, 4585, 4046, 1811, 1386, 1861, 2419, 1417, 1693, 4138, 4225, 1982, 1335, 1884, 2259, 1528, 1895, 4376, 4678, 2373, 1510, 1899, 2803, 2121, 1878, 3370, 3892, 2639, 1648, 1875, 2180, 2066, 1324, 2338, 3192, 2533, 1315, 1292, 1794, 1654, 1116, 1517, 2067, 1795, 926, 892, 1091, 1135, 739, 950, 1080, 920, 704, 723, 807, 780, 626, 668, 687, 705, 690, 647, 804, 821, 619, 714, 715, 602, 651, 660, 640, 673, 625, 631, 609, 616, 611, 644, 544, 532, 612, 718, 700, 594, 586, 617, 653, 614, 783, 793, 663, 637, 649, 676, 718, 741, 794, 768, 737, 713, 697, 685, 762, 817, 787, 689, 703, 812, 795, 655, 671, 832, 641, 636, 621, 735, 689, 606, 688, 710, 715, 761, 647, 548, 656, 640, 670, 659, 751, 751, 709, 748, 643, 654, 730, 706, 712, 737, 821, 830, 643, 655, 766, 796, 665, 609, 652, 757, 663, 596, 771, 773, 609, 571, 636, 566, 641, 701, 729, 700, 727, 604, 608, 652, 720, 644, 754, 851, 695, 568, 579, 668, 739, 627, 702, 810, 673, 562, 618, 620, 594, 578, 645, 760, 717, 632, 723, 703, 598, 650, 696, 694, 716, 632, 652, 749, 702, 709, 703, 771, 714, 603, 663, 729, 704, 680, 689, 814, 660, 572, 646, 761, 637, 538, 697, 737, 605, 562, 609, 758, 635, 547, 734, 741, 665, 624, 519, 573, 629, 579, 528, 623, 574, 574, 619, 590, 561, 632, 631, 639, 649, 625, 697, 660, 590, 744, 886, 817, 766, 749, 708, 737, 656, 713, 784, 764, 694, 638, 703, 676, 655, 611, 790, 864, 823, 683, 683, 629, 637, 609, 742, 967, 750, 695, 655, 582, 619, 569, 665, 813, 675, 725, 586, 520, 656, 648, 625, 592, 580, 536, 636, 698, 674, 565, 582, 661, 642, 610, 724, 741, 683, 626, 712, 831, 561, 475, 641, 632, 603, 621, 787, 833, 647, 560, 609, 637, 603, 580, 815, 849, 607, 619, 699, 657, 618, 679, 817, 816, 621, 648, 658, 683, 670, 710, 848, 755, 638, 616, 669, 639, 542, 505, 640, 721, 750, 649, 650, 754, 599, 553, 824, 850, 702, 750, 749, 745, 571, 668, 918, 843, 854, 894, 992, 929, 630, 794, 1030, 937, 865, 976, 1340, 1179, 759, 865, 1120, 1125, 723, 1068, 1273, 977, 698, 953, 1143, 1049, 697, 896, 937, 793, 673, 780, 820, 815, 697, 762, 673, 617, 616, 613, 610, 682, 794, 700, 726, 811, 536, 712, 753, 690, 1018, 805, 1016, 996, 653, 877, 918, 1004, 711, 609, 781, 821, 694, 747, 766, 726, 591, 636, 632, 577, 542, 531, 647, 651, 543, 543, 552, 515, 472, 475, 632, 625, 547, 619, 634, 580, 544, 507, 621, 647, 518, 507, 563, 573, 590, 558, 622, 629, 514, 635, 684, 587, 454, 476, 593, 524, 474, 528, 568, 482, 409, 420, 517, 478, 508, 498, 466, 448, 450, 377, 455, 528, 471, 436, 497, 480, 378, 340, 434, 499, 416, 438, 473, 469, 461, 473, 465, 460]"
