posz,velx,vely,velz,accx,accy,accz,p1x,p1y,p1z,p2x,p2y,p2z,p3x,p3y,p3z,p4x,p4y,p4z,p5x,p5y,p5z,heatmap
0.9779632687568665,-0.21137523651123047,-0.17698262631893158,-0.140933558344841,-0.6872760057449341,-0.5776681303977966,-0.7130938172340393,0.015944600105285645,0.9530067443847656,16.5,0.13625061511993408,0.7882118225097656,16.75,0.1492682695388794,0.7761955261230469,22.75,0.16729271411895752,0.7042407989501953,22.5,0.25855934619903564,0.46062469482421875,20.25,"[572, 556, 497, 556, 608, 563, 500, 551, 544, 597, 607, 603, 577, 599, 557, 455, 454, 558, 533, 509, 439, 535, 566, 441, 517, 495, 461, 510, 482, 496, 461, 457, 495, 505, 479, 481, 487, 516, 439, 371, 565, 511, 484, 519, 541, 505, 485, 522, 525, 461, 456, 479, 510, 473, 509, 533, 595, 489, 504, 513, 499, 543, 496, 547, 601, 524, 554, 519, 534, 529, 422, 525, 554, 468, 548, 515, 509, 521, 491, 517, 507, 497, 477, 460, 519, 499, 472, 493, 451, 582, 608, 508, 514, 558, 562, 489, 521, 501, 622, 524, 538, 545, 485, 546, 540, 483, 545, 554, 544, 502, 502, 569, 485, 466, 514, 561, 572, 511, 512, 578, 554, 497, 494, 561, 629, 524, 451, 559, 599, 515, 484, 521, 568, 544, 490, 559, 547, 525, 500, 480, 509, 631, 538, 494, 500, 500, 506, 450, 458, 512, 526, 515, 570, 575, 495, 548, 576, 557, 546, 529, 484, 509, 461, 479, 540, 590, 616, 471, 561, 573, 486, 517, 647, 657, 568, 530, 675, 544, 480, 577, 656, 647, 631, 691, 633, 530, 548, 580, 584, 577, 579, 623, 579, 545, 518, 556, 519, 500, 470, 527, 654, 655, 604, 582, 626, 568, 551, 530, 646, 761, 586, 524, 628, 526, 587, 600, 569, 539, 557, 638, 616, 502, 628, 663, 479, 565, 578, 543, 598, 656, 696, 520, 545, 626, 561, 496, 543, 586, 574, 492, 578, 679, 605, 522, 484, 571, 585, 471, 632, 580, 550, 502, 511, 604, 589, 592, 544, 570, 538, 514, 507, 518, 490, 517, 560, 562, 548, 605, 655, 566, 533, 565, 516, 545, 553, 575, 589, 577, 539, 505, 610, 617, 544, 576, 592, 533, 544, 580, 575, 579, 552, 610, 553, 509, 507, 550, 664, 532, 500, 608, 590, 541, 564, 640, 615, 593, 466, 525, 591, 600, 644, 603, 573, 576, 514, 556, 659, 537, 540, 569, 550, 461, 528, 551, 528, 497, 492, 577, 650, 664, 683, 566, 533, 543, 590, 640, 683, 665, 603, 508, 570, 576, 567, 639, 732, 831, 725, 597, 656, 739, 775, 635, 1121, 1251, 1167, 733, 735, 1017, 1084, 923, 1040, 1154, 995, 742, 739, 957, 1061, 859, 733, 692, 598, 563, 666, 714, 749, 767, 580, 572, 465, 513, 632, 557, 558, 622, 580, 583, 601, 627, 531, 563, 582, 602, 592, 700, 600, 495, 622, 699, 680, 594, 558, 708, 702, 624, 671, 628, 677, 667, 650, 615, 632, 675, 691, 637, 573, 558, 712, 576, 636, 694, 648, 701, 633, 671, 628, 612, 672, 655, 614, 655, 692, 675, 531, 596, 599, 552, 485, 561, 574, 550, 515, 597, 629, 523, 624, 660, 575, 597, 600, 602, 533, 547, 689, 649, 516, 553, 653, 685, 576, 549, 686, 725, 589, 556, 686, 726, 570, 580, 662, 702, 636, 547, 668, 752, 678, 626, 709, 751, 632, 568, 572, 551, 617, 671, 621, 530, 521, 605, 867, 564, 725, 1020, 1020, 647, 1008, 1293, 1513, 862, 1111, 1799, 1615, 1134, 2038, 2370, 2090, 1621, 2223, 2545, 1876, 1877, 3954, 3842, 2698, 1991, 2905, 2786, 2193, 2056, 4818, 4970, 1989, 1769, 2514, 2105, 1628, 1594, 3771, 3913, 2820, 2931, 4081, 2701, 1855, 2559, 6380, 6606, 3947, 3677, 5835, 3892, 2206, 3273, 8290, 8773, 4182, 3514, 6277, 4499, 2355, 3138, 8351, 9166, 2502, 2049, 3563, 2737, 1625, 1896, 4634, 5113, 1260, 998, 1567, 1349, 956, 724, 1624, 1956, 739, 657, 775, 744, 733, 727, 807, 859, 635, 614, 621, 649, 612, 526, 543, 613, 617, 654, 666, 677, 579, 549, 566, 586, 599, 603, 626, 688, 558, 661, 743, 629, 608, 565, 656, 677, 595, 753, 761, 587, 509, 607, 659, 559, 563, 718, 674, 553, 602, 728, 755, 559, 564, 694, 720, 593, 705, 896, 995, 831, 689, 720, 702, 671, 1027, 1311, 1257, 1125, 1107, 999, 870, 851, 1118, 922, 1061, 1312, 1185, 799, 738, 1016, 1138, 1197, 909, 947, 853, 989, 1174, 964, 939, 1062, 797, 663, 766, 853, 923, 790, 801, 817, 702, 646, 715, 788, 696, 762, 696, 822, 867, 809, 650, 791, 849, 729, 882, 904, 1294, 1352, 816, 917, 1045, 898, 949, 1097, 1695, 1803, 1121, 1093, 1398, 1133, 746, 758, 996, 1183, 1008, 785, 932, 888, 1014, 773, 660, 643, 897, 931, 686, 825, 922, 842, 759, 706, 809, 994, 750, 676, 630, 696, 648, 588, 598, 655, 648, 601, 683, 643, 671, 673, 718, 637, 657, 747, 794, 597, 582, 669, 754, 698, 612, 814, 749, 611, 647, 712, 709, 735, 666, 794, 732, 651, 669, 610, 577, 659, 575, 706, 688, 627, 660, 631, 585, 590, 607, 627, 623, 645, 669, 648, 655, 668, 659, 727, 670, 694, 747, 608, 564, 682, 728, 737, 792, 920, 929, 721, 606, 875, 935, 717, 775, 962, 880, 661, 591, 901, 905, 705, 652, 832, 871, 702, 570, 880, 1023, 866, 633, 730, 796, 696, 585, 774, 866, 825, 594, 620, 717, 601, 525, 643, 742, 688, 514, 492, 594, 565, 533, 594, 741, 665, 560, 594, 576, 546, 583, 650, 657, 601, 626, 730, 661, 687, 664, 607, 617, 575, 653, 598, 701, 759, 589, 517, 560, 662, 628, 640, 891, 884, 563, 613, 778, 812, 582, 575, 752, 803, 557, 552, 713, 708, 680, 556, 568, 686, 696, 568, 654, 731, 685, 687, 557, 648, 695, 708, 772, 722, 562, 649, 581, 637, 724, 559, 659, 675, 516, 657, 588, 517, 542, 487, 578, 573, 616, 667, 617, 576, 557, 599, 625, 633, 634, 584, 609, 546, 534, 514, 556, 652, 624, 618, 664, 543, 491, 480, 556, 679, 637, 637, 629, 539, 548, 590, 590, 602, 587, 598, 611, 527, 519, 586, 636, 618, 572, 620, 573, 558, 520, 490, 532, 533, 544, 538, 545, 587, 561, 589, 579, 478, 462, 490, 548, 612, 532, 490, 550, 483, 457, 489, 519, 522, 419, 416, 406, 464, 503, 450, 514, 566, 478, 399, 411, 553, 459, 477, 506, 490, 498, 451, 431, 469, 364, 484, 430, 387, 434, 499, 477, 343, 399, 456, 380, 358, 437, 456, 444, 380, 380, 426, 446, 423, 384, 370, 459, 427, 366, 393, 459, 418, 343, 342, 395, 404]"
0.9048718214035034,-0.23075872659683228,-0.08342115581035614,-0.2954443097114563,-0.47331446409225464,-0.24299463629722595,-0.642606794834137,-1.566025972366333,-2.7756214141845703,16.0,-0.15668606758117676,1.1567115783691406,23.25,-0.137803316116333,1.1521339416503906,24.0,-0.11162495613098145,1.1464118957519531,17.25,-0.032660722732543945,1.0236740112304688,16.75,"[512, 629, 642, 547, 514, 541, 644, 632, 480, 488, 553, 669, 685, 638, 661, 671, 467, 412, 560, 616, 488, 464, 600, 598, 471, 447, 597, 580, 466, 503, 523, 523, 388, 425, 537, 463, 426, 507, 529, 514, 511, 483, 432, 431, 530, 476, 435, 421, 438, 434, 466, 481, 495, 544, 526, 445, 475, 470, 478, 520, 495, 531, 628, 552, 490, 495, 517, 532, 509, 603, 631, 513, 610, 498, 564, 583, 507, 557, 595, 565, 644, 494, 571, 682, 576, 518, 466, 554, 545, 547, 537, 557, 466, 560, 567, 509, 542, 525, 561, 577, 525, 618, 668, 533, 505, 511, 516, 556, 528, 459, 564, 572, 568, 543, 575, 568, 565, 508, 536, 594, 465, 471, 477, 526, 508, 453, 463, 479, 510, 474, 515, 511, 499, 458, 507, 514, 613, 597, 558, 522, 563, 536, 519, 552, 560, 575, 458, 504, 570, 606, 541, 490, 523, 558, 495, 559, 600, 557, 502, 474, 491, 576, 566, 538, 509, 519, 533, 486, 585, 573, 584, 536, 496, 603, 564, 603, 459, 462, 583, 582, 467, 485, 513, 532, 573, 532, 497, 531, 490, 509, 500, 477, 558, 530, 488, 489, 463, 516, 491, 492, 627, 629, 556, 577, 558, 637, 615, 552, 547, 510, 546, 500, 493, 578, 586, 559, 531, 455, 346, 447, 436, 519, 501, 450, 606, 478, 481, 525, 467, 522, 591, 535, 594, 569, 587, 592, 571, 628, 574, 562, 625, 512, 542, 547, 517, 659, 562, 533, 485, 528, 588, 458, 464, 570, 578, 564, 531, 441, 458, 441, 480, 585, 536, 531, 542, 490, 496, 462, 596, 628, 501, 509, 510, 508, 504, 562, 578, 492, 484, 513, 538, 543, 464, 561, 592, 442, 481, 486, 550, 591, 529, 567, 558, 452, 464, 489, 553, 520, 506, 607, 603, 503, 490, 541, 571, 576, 505, 560, 511, 530, 507, 525, 641, 669, 570, 529, 566, 611, 616, 533, 502, 556, 617, 544, 457, 523, 587, 510, 550, 499, 496, 579, 586, 521, 488, 580, 511, 512, 646, 656, 576, 556, 646, 559, 573, 645, 742, 716, 557, 606, 704, 685, 662, 695, 751, 612, 536, 618, 619, 653, 692, 808, 716, 577, 632, 698, 674, 614, 782, 959, 833, 626, 726, 841, 929, 806, 776, 814, 837, 743, 758, 878, 920, 836, 606, 657, 709, 641, 589, 667, 699, 700, 668, 614, 622, 643, 603, 648, 658, 751, 620, 622, 535, 560, 564, 560, 675, 584, 541, 649, 573, 553, 601, 589, 710, 683, 588, 679, 648, 527, 637, 593, 584, 601, 491, 627, 727, 584, 540, 610, 620, 537, 568, 650, 687, 673, 658, 640, 636, 585, 592, 539, 507, 619, 527, 609, 641, 546, 608, 565, 526, 567, 448, 543, 610, 584, 537, 624, 592, 615, 532, 511, 608, 561, 553, 678, 646, 496, 556, 698, 651, 532, 603, 693, 727, 583, 635, 768, 739, 634, 699, 693, 678, 710, 652, 804, 985, 855, 1189, 2065, 2136, 1866, 1132, 2321, 4673, 4061, 2430, 4090, 4695, 3727, 2165, 4532, 10137, 9196, 2543, 3721, 4716, 3660, 2200, 3977, 9178, 8602, 1374, 1936, 2496, 1952, 1256, 1997, 4392, 4129, 991, 1359, 1530, 1047, 855, 1308, 2599, 2438, 1023, 1025, 1251, 970, 731, 1139, 2213, 2161, 1008, 768, 1135, 996, 726, 930, 1862, 1892, 758, 756, 1105, 1015, 739, 901, 1766, 1727, 1658, 1109, 1905, 1743, 1238, 1273, 3085, 3298, 2930, 1621, 3375, 2775, 1940, 1521, 4642, 5493, 2156, 1837, 3287, 2463, 1451, 1542, 4226, 4691, 764, 1054, 1548, 1202, 756, 879, 1935, 1934, 631, 656, 636, 670, 682, 784, 813, 694, 615, 664, 604, 617, 702, 794, 785, 646, 593, 667, 730, 635, 579, 658, 667, 637, 555, 577, 795, 741, 570, 641, 752, 666, 636, 602, 678, 694, 566, 758, 833, 690, 845, 1142, 1492, 1179, 725, 793, 1142, 1266, 1385, 2151, 3395, 2701, 1267, 1051, 2259, 2853, 2405, 2214, 4408, 3796, 1630, 1488, 2717, 3812, 2258, 2137, 3949, 3202, 1293, 1790, 2316, 3200, 1237, 1530, 2395, 1692, 925, 1264, 1489, 1852, 656, 1156, 1485, 1062, 700, 885, 992, 984, 729, 788, 939, 942, 635, 681, 727, 650, 717, 714, 813, 869, 618, 709, 850, 763, 680, 677, 881, 845, 625, 709, 822, 781, 611, 700, 821, 836, 622, 626, 724, 694, 583, 696, 681, 720, 550, 539, 787, 710, 601, 651, 681, 667, 538, 636, 726, 627, 685, 644, 658, 624, 536, 550, 594, 668, 641, 657, 576, 586, 663, 620, 638, 676, 605, 618, 535, 586, 654, 621, 517, 573, 535, 517, 528, 532, 534, 555, 555, 554, 514, 534, 724, 709, 538, 684, 643, 644, 650, 646, 876, 885, 628, 690, 856, 905, 735, 692, 791, 756, 640, 605, 798, 882, 700, 636, 741, 688, 540, 508, 663, 833, 532, 621, 693, 630, 644, 657, 691, 631, 653, 823, 799, 684, 722, 816, 844, 746, 628, 777, 803, 740, 672, 776, 816, 672, 578, 691, 752, 720, 680, 676, 649, 620, 661, 616, 700, 769, 664, 655, 679, 674, 628, 648, 691, 710, 533, 599, 673, 628, 579, 602, 552, 565, 491, 545, 675, 633, 883, 724, 754, 925, 919, 715, 1096, 1280, 1231, 670, 844, 1316, 1366, 732, 1361, 1831, 1110, 635, 845, 1132, 1198, 660, 1093, 1544, 712, 509, 665, 824, 780, 580, 782, 883, 571, 578, 634, 647, 597, 699, 718, 605, 625, 671, 583, 532, 597, 648, 658, 647, 583, 664, 681, 665, 615, 556, 755, 744, 558, 580, 640, 644, 532, 589, 645, 592, 592, 615, 625, 628, 527, 566, 556, 510, 533, 559, 616, 572, 496, 481, 505, 518, 508, 613, 574, 497, 513, 510, 537, 567, 543, 568, 584, 528, 590, 583, 545, 556, 515, 552, 568, 575, 598, 549, 470, 532, 557, 518, 426, 489, 623, 522, 472, 592, 533, 452, 471, 519, 546, 464, 465, 552, 489, 434, 519, 532, 427, 431, 448, 477, 543, 489, 547, 572, 511, 478, 519, 594, 576, 490, 531, 552, 464, 518, 459, 549, 526, 521, 476, 484, 452, 466, 482, 451, 419, 391, 401, 430, 378, 411, 447, 400, 463, 359, 459, 488, 437, 365, 414, 494, 410, 449, 560, 478, 408, 418, 547, 523, 425, 444, 409, 360, 366, 441, 441, 406]"
0.8705543875694275,-0.3970499634742737,0.003233872354030609,-0.363311767578125,-0.6253818273544312,-0.10897766053676605,-0.6485083103179932,0.019286751747131348,0.9328365325927734,26.25,0.0919567346572876,0.7925033569335938,23.75,0.10282862186431885,0.8759021759033203,15.0,0.10297167301177979,0.8577346801757812,22.0,0.24144518375396729,-1.1313915252685547,17.75,"[531, 540, 641, 652, 548, 648, 647, 539, 529, 602, 593, 623, 645, 607, 557, 485, 497, 517, 622, 608, 604, 574, 579, 499, 511, 499, 463, 545, 561, 466, 493, 503, 491, 475, 498, 519, 503, 474, 507, 552, 524, 467, 491, 553, 490, 443, 538, 575, 595, 503, 475, 535, 544, 464, 434, 567, 612, 508, 500, 561, 517, 464, 488, 600, 539, 521, 472, 479, 521, 525, 486, 484, 533, 563, 540, 520, 533, 603, 593, 546, 473, 491, 512, 530, 488, 511, 537, 533, 454, 535, 556, 490, 532, 530, 524, 516, 528, 538, 574, 501, 509, 523, 467, 545, 550, 541, 583, 553, 462, 503, 570, 577, 519, 490, 500, 541, 552, 540, 517, 537, 516, 552, 479, 555, 611, 613, 548, 444, 529, 490, 482, 558, 494, 487, 513, 502, 552, 507, 417, 432, 455, 491, 534, 522, 530, 533, 546, 507, 457, 487, 562, 514, 550, 570, 511, 465, 452, 530, 621, 603, 620, 563, 502, 460, 480, 542, 550, 621, 577, 557, 530, 525, 563, 613, 613, 541, 494, 564, 516, 478, 568, 612, 588, 571, 514, 477, 511, 453, 474, 458, 530, 621, 531, 508, 518, 460, 475, 465, 467, 499, 546, 537, 472, 514, 516, 521, 526, 483, 595, 569, 445, 495, 519, 530, 468, 475, 537, 531, 514, 494, 489, 520, 589, 612, 580, 498, 490, 505, 470, 511, 514, 558, 625, 602, 459, 442, 493, 581, 540, 526, 528, 555, 549, 529, 526, 598, 538, 465, 574, 549, 476, 543, 609, 655, 582, 544, 562, 560, 513, 470, 485, 568, 604, 564, 629, 563, 520, 567, 570, 598, 517, 577, 593, 622, 598, 533, 638, 671, 626, 569, 566, 603, 508, 593, 629, 640, 620, 518, 520, 620, 560, 579, 545, 556, 608, 482, 580, 551, 615, 593, 540, 534, 551, 549, 553, 504, 602, 617, 614, 543, 464, 551, 583, 581, 565, 544, 591, 503, 483, 586, 603, 611, 587, 579, 545, 513, 516, 625, 529, 534, 556, 556, 513, 466, 520, 610, 516, 517, 540, 558, 590, 499, 580, 620, 505, 549, 631, 674, 601, 547, 702, 668, 558, 687, 663, 583, 561, 597, 669, 595, 638, 663, 565, 553, 668, 634, 527, 590, 726, 721, 590, 662, 708, 660, 612, 609, 613, 662, 682, 645, 732, 701, 666, 678, 563, 593, 704, 650, 665, 686, 636, 593, 600, 594, 686, 649, 594, 650, 578, 612, 646, 700, 664, 572, 673, 629, 617, 612, 618, 617, 554, 623, 655, 618, 598, 673, 679, 575, 600, 620, 578, 548, 626, 747, 554, 583, 676, 612, 584, 612, 627, 622, 573, 640, 576, 575, 577, 539, 522, 499, 590, 701, 628, 528, 486, 517, 557, 468, 542, 523, 516, 497, 449, 441, 471, 497, 560, 530, 502, 521, 502, 526, 611, 606, 605, 536, 522, 517, 515, 507, 576, 617, 691, 579, 469, 621, 715, 645, 547, 620, 601, 853, 894, 818, 696, 1349, 1648, 1142, 1052, 2973, 2865, 2483, 830, 4309, 7188, 5513, 2329, 4473, 4774, 4628, 1834, 6229, 12036, 10113, 1940, 3435, 3730, 3498, 1692, 4497, 8868, 7570, 1151, 1621, 1663, 1334, 1026, 1909, 3194, 2686, 1013, 1268, 1514, 1159, 831, 1308, 2194, 1984, 721, 1103, 1372, 1107, 716, 1194, 1835, 1556, 893, 1298, 1734, 1230, 668, 1106, 1873, 1770, 794, 930, 1289, 999, 661, 820, 1519, 1556, 806, 673, 877, 766, 680, 614, 1097, 1218, 788, 671, 763, 799, 779, 648, 1023, 1127, 923, 841, 1088, 974, 735, 828, 1385, 1430, 902, 826, 1212, 1033, 744, 830, 1500, 1557, 813, 783, 899, 812, 777, 732, 1070, 1156, 630, 760, 695, 586, 642, 668, 780, 751, 723, 866, 671, 642, 766, 749, 678, 595, 785, 923, 743, 676, 614, 710, 713, 627, 652, 740, 743, 616, 541, 819, 940, 697, 913, 1700, 1536, 756, 660, 1340, 1631, 975, 1343, 2421, 2073, 928, 977, 1557, 1768, 912, 1107, 2457, 2608, 1382, 930, 1129, 1503, 1339, 2544, 5631, 5128, 1996, 1066, 2409, 3774, 2143, 2723, 5459, 4629, 1587, 1265, 2683, 3792, 1917, 1420, 2568, 2085, 778, 931, 1531, 1865, 942, 780, 1012, 803, 564, 636, 805, 832, 620, 634, 573, 566, 661, 599, 626, 655, 615, 728, 759, 655, 686, 685, 864, 889, 702, 835, 941, 991, 925, 827, 1001, 961, 743, 799, 781, 1005, 1014, 862, 734, 720, 758, 824, 625, 818, 926, 838, 618, 700, 838, 783, 726, 706, 758, 794, 838, 766, 718, 682, 606, 561, 670, 666, 593, 678, 689, 512, 582, 544, 585, 587, 511, 624, 553, 642, 661, 637, 603, 488, 599, 734, 700, 723, 674, 743, 840, 741, 703, 943, 952, 760, 646, 779, 992, 841, 745, 954, 937, 485, 518, 737, 791, 530, 538, 775, 696, 512, 533, 577, 615, 607, 596, 682, 666, 576, 524, 658, 768, 665, 604, 716, 727, 671, 516, 625, 771, 629, 537, 601, 737, 701, 718, 667, 663, 732, 634, 679, 756, 601, 687, 697, 651, 655, 641, 644, 673, 672, 586, 639, 667, 603, 594, 685, 709, 553, 654, 668, 624, 523, 425, 523, 547, 732, 781, 727, 741, 897, 672, 729, 880, 1248, 704, 841, 1428, 1454, 712, 1559, 1929, 1360, 744, 958, 1636, 1516, 709, 1971, 2310, 1037, 717, 868, 1081, 1039, 658, 1169, 1471, 843, 595, 771, 882, 745, 606, 935, 1129, 778, 539, 739, 900, 839, 608, 881, 1087, 675, 650, 813, 781, 659, 653, 729, 821, 699, 722, 743, 725, 676, 672, 669, 665, 633, 546, 563, 571, 528, 530, 582, 588, 606, 545, 550, 529, 509, 562, 503, 530, 602, 529, 546, 571, 606, 584, 525, 539, 632, 610, 592, 535, 582, 616, 753, 704, 588, 626, 606, 518, 526, 620, 815, 679, 573, 543, 522, 598, 610, 551, 652, 639, 524, 536, 571, 582, 579, 607, 575, 572, 464, 581, 600, 525, 496, 581, 633, 591, 462, 442, 474, 475, 516, 454, 447, 554, 519, 535, 503, 451, 425, 444, 456, 483, 480, 448, 444, 441, 437, 410, 454, 491, 433, 427, 428, 463, 387, 410, 507, 459, 419, 481, 492, 437, 419, 431, 427, 339, 453, 472, 442, 412, 447, 458, 429, 432, 407, 365, 455, 388, 380, 402, 436, 487, 505, 407, 403, 464, 499, 474, 348, 461]"
0.8673198223114014,0.03596028685569763,-0.03449609875679016,-0.2670685946941376,0.26458418369293213,0.14871828258037567,-0.26034510135650635,-0.48148834705352783,1.313924789428711,17.25,-0.06220543384552002,1.0022163391113281,20.0,-0.008132100105285645,0.7222652435302734,24.5,0.0041702985763549805,0.7916450500488281,25.5,0.7623413801193237,-0.28438568115234375,15.5,"[665, 670, 584, 554, 557, 554, 586, 671, 584, 597, 567, 572, 643, 639, 547, 585, 542, 551, 495, 482, 539, 571, 606, 552, 488, 509, 461, 438, 450, 504, 510, 490, 508, 421, 411, 456, 479, 476, 444, 557, 511, 480, 452, 546, 595, 508, 509, 535, 567, 530, 419, 477, 515, 492, 427, 467, 501, 526, 512, 512, 497, 564, 588, 486, 507, 600, 495, 382, 432, 544, 568, 455, 510, 546, 481, 467, 538, 581, 557, 521, 518, 468, 511, 522, 507, 507, 545, 570, 604, 485, 502, 512, 554, 537, 500, 587, 496, 525, 478, 501, 472, 493, 501, 466, 577, 619, 600, 624, 635, 561, 511, 506, 547, 547, 564, 617, 578, 594, 549, 576, 436, 474, 527, 564, 526, 482, 463, 467, 533, 507, 497, 562, 564, 540, 506, 514, 553, 546, 482, 555, 572, 591, 518, 499, 490, 483, 544, 572, 559, 490, 476, 522, 524, 530, 546, 529, 575, 541, 516, 556, 498, 526, 527, 486, 544, 529, 521, 526, 580, 507, 561, 652, 642, 558, 511, 581, 578, 575, 519, 640, 673, 570, 540, 586, 602, 544, 477, 639, 634, 490, 570, 595, 614, 538, 534, 578, 574, 550, 516, 629, 579, 530, 481, 419, 484, 493, 417, 541, 515, 453, 544, 503, 428, 502, 555, 588, 482, 525, 542, 530, 523, 566, 532, 544, 526, 519, 589, 564, 499, 475, 509, 534, 588, 564, 508, 529, 552, 654, 539, 476, 523, 518, 567, 501, 551, 628, 604, 590, 540, 548, 582, 501, 528, 630, 571, 580, 475, 510, 456, 460, 423, 460, 531, 484, 521, 588, 518, 521, 510, 535, 547, 440, 456, 575, 589, 555, 537, 521, 515, 421, 488, 577, 616, 611, 467, 422, 555, 511, 535, 501, 539, 506, 523, 536, 496, 529, 629, 590, 547, 547, 606, 638, 556, 565, 634, 523, 466, 611, 625, 531, 532, 641, 532, 477, 576, 600, 581, 523, 560, 635, 470, 548, 629, 636, 507, 565, 637, 594, 605, 592, 681, 713, 587, 621, 687, 669, 608, 548, 514, 592, 536, 646, 685, 644, 582, 531, 597, 577, 543, 644, 661, 586, 535, 517, 545, 454, 482, 550, 435, 465, 571, 597, 554, 531, 574, 540, 451, 526, 608, 723, 648, 686, 705, 648, 650, 620, 569, 673, 649, 605, 637, 699, 717, 576, 596, 587, 653, 595, 581, 722, 596, 606, 650, 599, 632, 619, 559, 632, 524, 612, 736, 659, 621, 645, 636, 592, 512, 691, 620, 642, 643, 601, 565, 559, 597, 614, 514, 600, 594, 544, 527, 587, 591, 515, 547, 754, 767, 609, 598, 675, 646, 592, 584, 727, 720, 588, 700, 594, 592, 649, 526, 544, 649, 638, 697, 650, 523, 561, 484, 479, 589, 551, 536, 563, 523, 542, 583, 550, 554, 583, 630, 568, 515, 599, 561, 580, 645, 690, 560, 577, 602, 535, 625, 619, 570, 631, 589, 576, 581, 598, 595, 758, 741, 673, 597, 785, 1096, 930, 1981, 2025, 2712, 2409, 1614, 2252, 5581, 5448, 4726, 3026, 5050, 4751, 3650, 3464, 10576, 11201, 4655, 2014, 4276, 4159, 3502, 2361, 8645, 9781, 2205, 982, 2236, 2057, 1520, 1242, 3638, 4208, 1359, 1042, 1960, 2192, 1470, 909, 1899, 2202, 1434, 1273, 1983, 2041, 1320, 1092, 2189, 2386, 1269, 1188, 1699, 1354, 961, 993, 2095, 2326, 870, 922, 1244, 969, 717, 835, 1635, 1698, 639, 662, 801, 732, 570, 628, 935, 848, 649, 615, 703, 665, 620, 617, 789, 844, 674, 747, 826, 722, 665, 657, 862, 899, 809, 601, 967, 939, 726, 762, 1101, 1195, 1257, 912, 1569, 1427, 1101, 889, 1814, 2077, 1040, 1013, 1632, 1391, 981, 884, 2039, 2139, 858, 980, 1250, 1043, 765, 765, 1328, 1379, 900, 1470, 1394, 850, 566, 957, 1310, 1039, 1231, 2590, 2451, 1234, 684, 1570, 2224, 1497, 1086, 2596, 2623, 1347, 615, 1534, 2419, 1769, 975, 1359, 1198, 774, 701, 999, 1163, 835, 1183, 1700, 1852, 1192, 789, 987, 1419, 1299, 1347, 2411, 3057, 2334, 1192, 1261, 2158, 2397, 1846, 3809, 3741, 2612, 1415, 2180, 2988, 2754, 1323, 2768, 2627, 1630, 869, 1702, 2295, 1637, 807, 1253, 1303, 1048, 702, 694, 928, 845, 675, 696, 607, 679, 796, 582, 517, 626, 740, 719, 656, 726, 766, 699, 624, 684, 840, 876, 801, 868, 955, 953, 818, 712, 780, 907, 775, 738, 871, 935, 852, 641, 651, 705, 696, 624, 717, 720, 778, 707, 565, 621, 654, 597, 550, 679, 784, 654, 516, 520, 558, 582, 487, 595, 690, 623, 483, 453, 538, 617, 579, 454, 561, 554, 516, 486, 440, 519, 584, 528, 520, 519, 574, 533, 498, 596, 639, 681, 650, 591, 578, 523, 531, 549, 638, 634, 530, 514, 471, 535, 682, 670, 556, 646, 687, 640, 514, 630, 693, 629, 604, 656, 641, 608, 585, 699, 758, 590, 531, 616, 640, 660, 512, 693, 764, 553, 571, 613, 603, 552, 520, 685, 674, 543, 541, 580, 639, 547, 607, 639, 616, 613, 599, 582, 610, 555, 568, 637, 593, 521, 511, 554, 638, 581, 578, 590, 518, 501, 491, 525, 491, 458, 564, 479, 521, 605, 568, 504, 503, 528, 682, 507, 611, 707, 677, 566, 678, 817, 1039, 725, 670, 839, 919, 763, 803, 1073, 1049, 698, 681, 964, 986, 705, 753, 1105, 850, 578, 616, 872, 832, 573, 638, 950, 532, 489, 651, 706, 627, 561, 663, 717, 657, 620, 781, 716, 640, 726, 1107, 1112, 609, 671, 783, 800, 623, 833, 1317, 1165, 638, 729, 818, 773, 701, 886, 1203, 1117, 504, 678, 815, 661, 576, 777, 914, 778, 578, 592, 620, 703, 630, 622, 717, 699, 658, 708, 692, 700, 634, 578, 796, 854, 578, 679, 626, 553, 535, 578, 781, 775, 643, 533, 540, 538, 564, 599, 623, 699, 652, 547, 528, 601, 661, 597, 572, 654, 619, 583, 528, 521, 579, 528, 547, 646, 521, 440, 426, 482, 530, 459, 456, 525, 518, 487, 461, 495, 536, 424, 488, 591, 492, 386, 367, 431, 493, 450, 519, 567, 473, 480, 460, 442, 416, 404, 541, 535, 386, 381, 502, 487, 395, 362, 467, 499, 434, 437, 395, 417, 373, 460, 491, 392, 402, 458, 427, 372, 396, 435, 432, 396, 477, 421, 467, 485, 412, 432, 483, 511]"
0.7384529113769531,0.209011971950531,0.1198064312338829,-0.4871916174888611,0.512202262878418,0.38864102959632874,-0.4185684323310852,-0.24656736850738525,1.025533676147461,22.25,-0.130409836769104,0.823974609375,18.0,0.06571328639984131,0.7168292999267578,17.75,0.09804284572601318,0.3612041473388672,26.0,0.10118997097015381,0.29010772705078125,27.25,"[488, 576, 625, 617, 633, 618, 628, 574, 541, 607, 588, 572, 587, 558, 579, 575, 588, 602, 560, 470, 489, 584, 552, 526, 511, 584, 531, 449, 501, 480, 430, 432, 428, 560, 585, 486, 493, 484, 474, 445, 547, 553, 581, 551, 556, 529, 520, 577, 561, 591, 556, 506, 546, 524, 501, 489, 603, 547, 496, 508, 576, 523, 430, 485, 529, 476, 457, 493, 479, 482, 486, 506, 563, 445, 431, 490, 456, 459, 456, 499, 426, 481, 493, 447, 431, 476, 479, 407, 471, 469, 439, 459, 520, 525, 445, 458, 516, 469, 395, 452, 604, 546, 498, 533, 558, 489, 516, 565, 614, 566, 533, 604, 583, 409, 560, 649, 555, 472, 564, 672, 518, 460, 477, 515, 417, 378, 534, 575, 527, 478, 463, 494, 444, 413, 488, 563, 638, 556, 531, 562, 594, 598, 517, 584, 650, 699, 652, 592, 568, 679, 554, 566, 596, 618, 630, 525, 506, 615, 595, 515, 543, 556, 628, 608, 457, 539, 574, 497, 562, 618, 606, 623, 644, 651, 637, 575, 587, 562, 524, 555, 623, 674, 612, 556, 512, 453, 459, 507, 551, 552, 528, 514, 545, 418, 459, 562, 532, 512, 524, 547, 483, 464, 557, 553, 550, 522, 558, 595, 496, 566, 568, 565, 541, 562, 586, 549, 646, 622, 516, 479, 635, 607, 565, 660, 542, 500, 564, 531, 565, 586, 597, 585, 600, 539, 639, 549, 531, 589, 544, 591, 554, 635, 616, 507, 495, 580, 595, 511, 625, 660, 557, 456, 530, 619, 571, 497, 553, 535, 524, 535, 589, 574, 557, 534, 511, 560, 582, 649, 564, 499, 608, 565, 530, 538, 538, 634, 572, 529, 588, 581, 557, 592, 501, 596, 657, 592, 588, 550, 547, 554, 529, 609, 622, 515, 488, 507, 627, 680, 643, 539, 595, 645, 647, 617, 749, 834, 726, 591, 636, 714, 718, 606, 598, 623, 607, 617, 600, 535, 649, 663, 592, 608, 577, 607, 621, 564, 548, 516, 607, 606, 591, 617, 598, 524, 560, 578, 556, 525, 457, 495, 585, 619, 527, 543, 519, 497, 519, 537, 551, 551, 569, 514, 534, 511, 584, 564, 550, 628, 647, 638, 503, 527, 593, 567, 585, 652, 624, 539, 592, 557, 552, 623, 614, 622, 608, 566, 617, 642, 574, 614, 636, 623, 582, 590, 605, 709, 589, 555, 586, 649, 623, 503, 640, 607, 551, 570, 588, 554, 544, 597, 575, 641, 625, 587, 593, 548, 574, 593, 546, 698, 694, 576, 607, 547, 610, 589, 582, 679, 655, 616, 562, 490, 614, 621, 536, 693, 727, 577, 580, 682, 689, 625, 505, 619, 654, 578, 540, 616, 668, 586, 651, 636, 664, 620, 601, 650, 604, 662, 553, 594, 694, 678, 597, 633, 575, 616, 642, 616, 626, 603, 601, 638, 594, 561, 703, 591, 552, 687, 683, 656, 585, 556, 643, 579, 558, 651, 655, 645, 619, 569, 603, 638, 591, 608, 556, 757, 1001, 837, 1903, 2007, 2508, 1622, 1093, 2233, 4728, 4573, 5207, 4168, 6903, 3760, 2647, 3785, 11102, 12181, 5952, 4611, 8398, 4562, 2893, 3764, 12345, 13942, 3724, 2175, 4360, 2643, 2047, 1739, 6477, 7742, 2765, 1183, 2808, 2291, 1723, 1150, 3865, 4923, 2622, 2293, 4083, 2846, 1465, 2207, 5497, 5939, 1798, 1746, 2872, 1779, 824, 1724, 3960, 4184, 1296, 1003, 1708, 1194, 729, 894, 2104, 2445, 1104, 824, 1399, 1252, 811, 687, 1549, 1861, 805, 733, 930, 842, 665, 605, 1008, 1144, 731, 784, 760, 631, 689, 582, 650, 718, 696, 901, 1028, 738, 600, 736, 974, 987, 753, 804, 884, 717, 655, 667, 888, 865, 1337, 845, 1406, 1217, 982, 839, 1790, 2181, 1313, 1077, 1240, 1038, 880, 908, 1521, 1762, 1711, 2515, 1880, 995, 985, 1681, 1832, 955, 2098, 3593, 2725, 1026, 1254, 2295, 2713, 1439, 1627, 2538, 1893, 917, 1085, 1632, 1960, 1327, 1000, 1319, 1011, 676, 692, 1034, 1194, 863, 630, 684, 680, 616, 532, 693, 809, 727, 893, 1098, 1053, 742, 726, 844, 900, 820, 1107, 1633, 1539, 995, 830, 972, 1159, 911, 938, 1278, 1148, 842, 906, 804, 834, 779, 736, 765, 747, 684, 771, 803, 644, 676, 682, 707, 659, 606, 663, 723, 677, 695, 644, 740, 770, 633, 679, 764, 588, 541, 758, 696, 845, 873, 871, 920, 791, 727, 840, 861, 1167, 1135, 873, 953, 978, 994, 768, 714, 956, 919, 770, 868, 818, 787, 567, 655, 731, 639, 619, 710, 707, 630, 724, 677, 679, 595, 652, 681, 741, 763, 757, 632, 541, 544, 613, 593, 652, 719, 634, 550, 552, 598, 613, 600, 662, 670, 588, 605, 649, 669, 571, 566, 635, 619, 568, 667, 677, 577, 570, 624, 652, 542, 594, 748, 743, 585, 512, 592, 692, 636, 614, 619, 623, 484, 541, 672, 613, 595, 557, 528, 557, 513, 559, 564, 607, 655, 586, 575, 623, 543, 566, 651, 583, 636, 577, 595, 637, 594, 558, 638, 657, 638, 584, 644, 658, 618, 600, 650, 723, 659, 571, 557, 544, 584, 504, 591, 722, 595, 538, 619, 630, 578, 571, 601, 612, 545, 557, 608, 684, 647, 607, 625, 668, 641, 750, 524, 759, 1016, 819, 604, 1037, 1158, 799, 592, 792, 946, 728, 652, 1031, 1118, 608, 512, 638, 688, 581, 557, 639, 690, 635, 562, 675, 753, 659, 593, 654, 747, 565, 639, 826, 875, 714, 643, 733, 742, 572, 685, 747, 693, 689, 679, 677, 617, 567, 581, 582, 542, 546, 582, 587, 619, 524, 559, 660, 618, 457, 463, 703, 689, 532, 587, 572, 496, 508, 493, 673, 669, 533, 642, 620, 542, 490, 573, 795, 768, 574, 687, 770, 638, 534, 622, 867, 853, 575, 627, 641, 602, 578, 631, 818, 826, 561, 513, 544, 581, 568, 564, 653, 682, 571, 581, 629, 645, 516, 579, 655, 594, 526, 732, 706, 516, 522, 666, 782, 664, 483, 757, 715, 455, 542, 731, 881, 671, 449, 606, 624, 576, 504, 585, 743, 606, 525, 435, 476, 490, 468, 417, 544, 624, 441, 417, 476, 447, 442, 426, 577, 631, 377, 453, 490, 439, 393, 416, 462, 483, 445, 450, 529, 516, 444, 455, 411, 435, 440, 404, 370, 472, 438, 384, 425, 406, 473, 453, 359, 512, 472, 426, 446, 415]"
0.9069989919662476,-0.07621946185827255,-0.3799012303352356,0.13984890282154083,-0.4249108135700226,-0.503166913986206,0.18456566333770752,-0.20462989807128906,1.2212276458740234,26.25,-0.05957603454589844,1.1017799377441406,22.0,-0.0079345703125,0.9289741516113281,22.0,0.03326416015625,0.9418487548828125,24.75,0.16358375549316406,0.8930683135986328,16.5,"[627, 621, 546, 501, 598, 495, 547, 623, 605, 592, 524, 599, 641, 603, 564, 596, 557, 589, 546, 494, 520, 647, 624, 530, 564, 613, 589, 457, 536, 611, 557, 565, 529, 513, 517, 490, 527, 586, 508, 484, 482, 531, 524, 423, 499, 534, 525, 492, 499, 508, 466, 470, 445, 430, 493, 506, 554, 499, 472, 472, 457, 529, 583, 576, 542, 538, 479, 441, 529, 551, 441, 473, 510, 535, 594, 597, 601, 563, 502, 532, 576, 491, 580, 567, 565, 570, 524, 562, 550, 522, 562, 609, 613, 584, 493, 581, 560, 586, 531, 533, 573, 589, 586, 470, 592, 492, 483, 583, 579, 468, 472, 543, 648, 686, 537, 515, 584, 623, 548, 534, 628, 628, 523, 582, 636, 579, 551, 584, 540, 541, 438, 548, 499, 490, 516, 450, 586, 531, 496, 552, 507, 562, 503, 511, 527, 597, 589, 542, 555, 565, 489, 512, 526, 482, 529, 587, 594, 578, 498, 465, 514, 508, 433, 470, 521, 476, 501, 484, 599, 672, 711, 575, 462, 583, 544, 471, 567, 683, 715, 593, 505, 522, 519, 544, 568, 533, 519, 585, 586, 467, 459, 571, 532, 570, 542, 503, 484, 467, 555, 563, 576, 616, 557, 483, 493, 628, 641, 570, 559, 575, 524, 484, 501, 606, 624, 580, 584, 515, 571, 580, 591, 584, 549, 588, 585, 572, 655, 651, 580, 487, 526, 600, 560, 563, 652, 625, 515, 528, 617, 597, 532, 529, 552, 565, 543, 584, 545, 523, 518, 609, 624, 536, 595, 602, 543, 459, 463, 591, 585, 507, 601, 699, 558, 471, 642, 689, 670, 580, 627, 710, 657, 604, 667, 706, 678, 545, 641, 692, 622, 652, 561, 643, 670, 550, 634, 790, 722, 583, 558, 659, 503, 469, 540, 608, 615, 512, 506, 566, 448, 442, 547, 507, 516, 487, 616, 499, 516, 502, 511, 576, 521, 559, 537, 474, 516, 522, 560, 589, 523, 539, 540, 625, 660, 621, 544, 635, 568, 542, 600, 678, 640, 664, 708, 691, 643, 564, 611, 599, 609, 654, 656, 613, 539, 566, 508, 545, 718, 724, 646, 627, 631, 653, 543, 541, 582, 572, 571, 618, 574, 533, 663, 675, 542, 577, 637, 560, 543, 643, 648, 644, 577, 628, 648, 570, 587, 610, 608, 650, 610, 574, 547, 577, 614, 607, 640, 707, 600, 532, 568, 585, 618, 630, 731, 798, 707, 661, 596, 690, 678, 592, 589, 641, 702, 685, 581, 589, 609, 590, 701, 608, 648, 661, 562, 602, 658, 654, 591, 546, 413, 466, 548, 590, 567, 536, 607, 669, 639, 538, 531, 669, 704, 542, 573, 666, 612, 578, 619, 738, 747, 587, 451, 590, 589, 477, 605, 669, 644, 574, 521, 584, 614, 590, 659, 687, 629, 590, 609, 559, 514, 679, 637, 573, 595, 624, 685, 622, 565, 601, 632, 653, 539, 565, 596, 650, 594, 568, 597, 651, 519, 504, 1414, 1072, 1383, 1187, 854, 903, 1303, 1720, 3496, 3215, 5591, 3843, 1725, 2032, 6149, 7247, 4939, 4962, 8791, 5630, 2741, 3342, 10522, 11926, 4436, 3689, 7008, 4551, 2767, 2498, 8805, 10169, 3116, 2643, 5208, 3714, 1983, 1784, 6114, 7062, 1824, 2438, 4230, 2981, 1138, 1606, 4382, 4788, 835, 1842, 2471, 1531, 648, 1257, 2414, 2302, 708, 1710, 1899, 1178, 703, 1089, 1793, 1530, 672, 1278, 1565, 1089, 801, 854, 1599, 1583, 724, 781, 924, 773, 724, 670, 1090, 1219, 622, 656, 695, 634, 594, 645, 753, 764, 741, 874, 997, 777, 630, 737, 825, 832, 692, 797, 1037, 829, 684, 723, 810, 916, 815, 776, 895, 778, 679, 770, 736, 871, 978, 805, 753, 763, 694, 756, 745, 868, 818, 759, 657, 733, 733, 754, 804, 794, 832, 822, 758, 585, 604, 767, 730, 699, 676, 841, 968, 740, 571, 639, 573, 646, 639, 890, 888, 677, 625, 605, 590, 599, 690, 941, 956, 662, 540, 661, 762, 717, 1028, 1958, 1909, 991, 752, 1132, 1368, 1073, 1425, 3015, 2995, 1470, 942, 1631, 1936, 1280, 1714, 3730, 3766, 1802, 1148, 1796, 2407, 1732, 1753, 3525, 3528, 1756, 1261, 1796, 2468, 1741, 1224, 2510, 2362, 1089, 970, 1548, 2020, 1357, 816, 1275, 1115, 593, 742, 984, 1177, 895, 887, 896, 745, 673, 738, 809, 822, 798, 905, 885, 821, 764, 893, 866, 716, 831, 763, 876, 815, 723, 778, 721, 655, 716, 636, 603, 626, 704, 703, 627, 687, 660, 690, 682, 588, 589, 699, 668, 620, 668, 617, 704, 631, 549, 632, 659, 583, 633, 503, 656, 568, 484, 562, 585, 624, 496, 473, 601, 596, 564, 554, 572, 723, 627, 499, 518, 540, 592, 483, 580, 727, 660, 638, 538, 499, 558, 499, 561, 670, 662, 591, 619, 659, 546, 484, 543, 583, 564, 610, 833, 882, 696, 552, 644, 769, 699, 659, 846, 877, 746, 521, 664, 844, 720, 611, 768, 748, 687, 603, 646, 702, 671, 525, 621, 611, 617, 574, 578, 643, 625, 634, 720, 635, 582, 575, 555, 624, 671, 661, 572, 580, 528, 501, 530, 579, 660, 655, 648, 500, 545, 565, 605, 612, 602, 558, 666, 721, 628, 577, 657, 650, 566, 659, 661, 785, 733, 618, 725, 741, 690, 658, 626, 833, 840, 574, 581, 884, 864, 666, 557, 811, 840, 659, 659, 930, 921, 687, 573, 683, 740, 685, 621, 866, 932, 717, 713, 710, 666, 723, 675, 708, 767, 570, 651, 696, 630, 601, 633, 646, 682, 498, 599, 633, 537, 587, 562, 641, 605, 542, 546, 520, 508, 627, 671, 653, 568, 613, 523, 703, 790, 644, 615, 803, 804, 697, 676, 790, 778, 615, 648, 707, 745, 593, 933, 957, 687, 482, 683, 687, 527, 634, 866, 731, 512, 542, 641, 585, 473, 585, 645, 646, 523, 555, 564, 554, 591, 605, 634, 692, 559, 482, 615, 637, 634, 562, 638, 668, 558, 477, 623, 758, 702, 492, 543, 607, 600, 441, 572, 780, 623, 433, 496, 519, 487, 387, 486, 510, 408, 466, 525, 539, 527, 512, 510, 523, 483, 554, 588, 544, 559, 563, 552, 491, 465, 471, 512, 523, 453, 459, 451, 460, 454, 527, 510, 494, 472, 478, 425, 406, 512, 433, 425, 445, 402, 425, 366, 373, 470, 465, 560, 558, 443, 373, 438, 475, 500]"
1.040460467338562,-0.01765618473291397,-0.6573853492736816,0.31840789318084717,-0.21904778480529785,-0.6368112564086914,0.26774322986602783,-0.4486004114151001,1.2967586517333984,23.0,-0.2265850305557251,1.1614322662353516,22.75,-0.1750866174697876,1.1363983154296875,17.0,-0.1297394037246704,1.1153697967529297,16.25,-0.08067286014556885,1.2604236602783203,16.25,"[449, 556, 662, 701, 718, 702, 666, 559, 469, 526, 584, 606, 675, 713, 582, 521, 488, 558, 541, 473, 556, 626, 535, 473, 530, 596, 522, 428, 485, 505, 429, 454, 439, 537, 539, 408, 467, 497, 455, 488, 411, 547, 602, 512, 539, 556, 534, 509, 512, 499, 569, 595, 570, 523, 482, 503, 506, 477, 535, 519, 516, 438, 449, 473, 480, 517, 503, 465, 415, 423, 482, 481, 441, 514, 544, 568, 524, 483, 462, 405, 511, 585, 577, 577, 594, 566, 486, 426, 541, 538, 551, 568, 603, 586, 528, 588, 511, 595, 623, 538, 520, 533, 583, 510, 502, 510, 601, 519, 509, 522, 532, 523, 428, 558, 573, 535, 518, 563, 579, 534, 477, 529, 545, 508, 499, 529, 575, 561, 544, 515, 525, 486, 464, 554, 531, 511, 586, 475, 377, 496, 575, 543, 520, 552, 566, 583, 578, 609, 608, 597, 592, 541, 445, 595, 647, 610, 551, 565, 569, 472, 553, 519, 496, 570, 558, 513, 527, 481, 569, 471, 456, 563, 662, 640, 542, 529, 574, 541, 579, 491, 535, 582, 522, 540, 617, 676, 675, 495, 503, 625, 638, 629, 578, 551, 544, 462, 594, 582, 510, 584, 662, 685, 638, 564, 632, 650, 627, 666, 589, 661, 585, 519, 540, 568, 567, 504, 514, 638, 559, 481, 573, 571, 555, 567, 612, 688, 622, 512, 553, 572, 589, 628, 597, 641, 509, 499, 642, 685, 563, 539, 621, 526, 526, 602, 601, 508, 538, 641, 568, 527, 527, 582, 582, 506, 498, 558, 552, 524, 522, 612, 622, 486, 489, 573, 576, 561, 621, 684, 629, 505, 512, 560, 525, 500, 516, 544, 497, 431, 488, 517, 540, 551, 584, 591, 507, 408, 484, 537, 536, 614, 610, 521, 479, 495, 554, 458, 638, 647, 542, 490, 531, 538, 571, 604, 661, 626, 486, 542, 640, 531, 521, 642, 585, 538, 554, 552, 581, 584, 537, 627, 461, 419, 486, 562, 522, 527, 537, 541, 524, 582, 607, 624, 692, 628, 542, 553, 580, 608, 576, 640, 661, 589, 587, 640, 541, 543, 558, 629, 521, 420, 539, 535, 548, 572, 650, 623, 467, 545, 647, 596, 664, 618, 630, 609, 564, 581, 505, 566, 665, 574, 511, 614, 617, 535, 571, 658, 603, 549, 592, 598, 595, 517, 578, 675, 553, 530, 605, 647, 588, 541, 584, 582, 592, 654, 556, 635, 670, 670, 652, 555, 632, 630, 507, 605, 672, 665, 584, 536, 633, 622, 626, 620, 610, 666, 587, 591, 668, 743, 689, 624, 626, 611, 567, 557, 593, 672, 597, 540, 647, 627, 550, 508, 687, 747, 641, 477, 619, 655, 531, 512, 623, 665, 636, 577, 705, 650, 516, 580, 591, 570, 626, 623, 610, 627, 520, 578, 504, 483, 548, 518, 575, 530, 520, 535, 639, 522, 604, 634, 606, 562, 587, 666, 1432, 991, 1121, 956, 913, 786, 1591, 2023, 2252, 1289, 1981, 1623, 1423, 1005, 2799, 3618, 2466, 895, 2233, 2038, 1562, 655, 2742, 3864, 5290, 1142, 4176, 3791, 2794, 1039, 5124, 7737, 5382, 1196, 4294, 4012, 2878, 1041, 5219, 7825, 3788, 1362, 3191, 2893, 2066, 927, 3851, 5651, 2309, 3116, 3354, 2070, 1255, 1834, 3161, 3352, 2533, 5223, 5148, 2301, 1577, 2699, 3601, 2567, 3211, 4090, 4339, 3015, 1990, 2092, 3190, 3754, 4209, 1863, 5674, 5354, 2391, 1168, 4586, 6625, 3439, 1670, 4734, 4416, 1974, 1083, 3724, 5400, 1353, 1178, 1732, 1592, 1037, 698, 1200, 1705, 750, 888, 897, 748, 731, 667, 664, 744, 678, 711, 899, 828, 726, 537, 643, 713, 833, 1139, 1187, 919, 746, 734, 997, 975, 1234, 1300, 1241, 905, 896, 906, 1081, 1282, 1527, 1781, 1618, 980, 1180, 1332, 1152, 1292, 1442, 2248, 2107, 1061, 1230, 1438, 1065, 1012, 1124, 1964, 1924, 1052, 1048, 1163, 1059, 864, 929, 1826, 2076, 1306, 891, 1140, 1140, 879, 981, 1857, 2053, 1173, 981, 1292, 1009, 918, 975, 1513, 1625, 1043, 913, 1181, 979, 826, 990, 1360, 1578, 1245, 984, 999, 1055, 971, 973, 1206, 1238, 1092, 925, 859, 741, 777, 699, 798, 831, 753, 594, 731, 618, 574, 766, 826, 813, 637, 653, 709, 688, 648, 975, 972, 860, 911, 911, 868, 844, 850, 821, 794, 721, 760, 692, 668, 659, 807, 766, 675, 720, 766, 651, 614, 647, 702, 618, 600, 629, 716, 696, 634, 551, 605, 604, 616, 810, 747, 680, 689, 771, 852, 635, 667, 801, 812, 659, 576, 798, 825, 639, 638, 647, 681, 621, 641, 609, 615, 674, 541, 621, 619, 554, 641, 612, 669, 612, 569, 640, 631, 492, 479, 622, 745, 641, 644, 652, 569, 595, 580, 664, 718, 722, 696, 686, 656, 578, 661, 705, 633, 696, 704, 734, 645, 566, 598, 659, 677, 621, 744, 766, 696, 537, 557, 584, 512, 544, 626, 658, 602, 495, 516, 578, 526, 611, 673, 703, 627, 590, 653, 669, 565, 571, 684, 631, 557, 645, 688, 654, 493, 524, 589, 581, 588, 648, 627, 620, 538, 592, 682, 638, 559, 651, 660, 642, 661, 638, 585, 500, 514, 597, 573, 581, 647, 671, 574, 479, 538, 587, 510, 551, 568, 670, 559, 603, 653, 645, 607, 668, 703, 594, 629, 669, 662, 673, 598, 748, 751, 552, 674, 769, 694, 730, 684, 860, 866, 640, 759, 733, 622, 586, 634, 750, 703, 654, 753, 683, 604, 475, 613, 762, 670, 658, 658, 649, 600, 578, 704, 736, 659, 680, 645, 596, 658, 705, 709, 709, 679, 632, 623, 530, 576, 618, 529, 552, 588, 616, 636, 596, 562, 492, 548, 574, 586, 551, 655, 622, 548, 466, 612, 713, 587, 597, 632, 565, 599, 576, 649, 676, 660, 663, 738, 680, 655, 695, 665, 740, 725, 507, 608, 666, 629, 623, 573, 619, 589, 472, 453, 529, 575, 543, 497, 467, 456, 474, 452, 553, 543, 480, 465, 463, 484, 446, 524, 578, 534, 535, 493, 455, 485, 508, 486, 542, 524, 536, 437, 447, 502, 567, 531, 474, 515, 489, 440, 464, 510, 508, 510, 501, 449, 468, 469, 483, 492, 432, 404, 377, 397, 399, 449, 466, 449, 417, 433, 448, 471, 400, 449, 528, 449, 393, 426, 437, 411, 412, 460, 455, 411, 377, 362, 435, 457, 320, 402, 446, 429]"
1.0348197221755981,-0.017130255699157715,-0.5769426226615906,0.27034494280815125,-0.18306922912597656,-0.4477131962776184,0.20416676998138428,-0.0971454381942749,1.000070571899414,21.25,-0.0708240270614624,1.1588573455810547,27.25,-0.0027316808700561523,1.0090827941894531,27.25,0.19339144229888916,0.9497165679931641,20.25,0.9316784143447876,-0.450897216796875,16.75,"[536, 600, 735, 683, 642, 680, 733, 599, 547, 651, 761, 769, 665, 695, 808, 699, 531, 601, 625, 571, 582, 597, 560, 499, 515, 525, 574, 471, 474, 504, 497, 512, 458, 406, 560, 520, 475, 515, 461, 482, 496, 454, 519, 519, 492, 453, 496, 549, 462, 439, 509, 555, 587, 491, 497, 569, 505, 461, 534, 544, 555, 554, 493, 557, 473, 426, 559, 493, 425, 496, 510, 505, 521, 565, 523, 492, 487, 450, 466, 499, 503, 589, 607, 600, 593, 569, 571, 505, 542, 610, 541, 563, 621, 556, 529, 523, 528, 519, 500, 577, 610, 485, 435, 482, 451, 556, 492, 499, 539, 573, 609, 496, 554, 540, 438, 482, 572, 548, 516, 541, 552, 521, 484, 602, 539, 543, 559, 518, 516, 513, 529, 554, 559, 606, 497, 495, 543, 473, 441, 517, 557, 556, 517, 516, 521, 565, 537, 531, 545, 524, 613, 580, 564, 570, 540, 592, 615, 532, 543, 613, 562, 480, 491, 474, 473, 507, 589, 621, 482, 475, 530, 478, 462, 531, 629, 588, 473, 530, 530, 429, 462, 509, 517, 562, 518, 557, 549, 471, 499, 546, 607, 636, 506, 548, 568, 575, 509, 580, 607, 543, 593, 640, 669, 660, 575, 643, 706, 634, 596, 676, 671, 617, 491, 531, 637, 609, 603, 609, 682, 612, 548, 546, 541, 577, 657, 608, 589, 616, 632, 519, 552, 638, 616, 495, 517, 616, 618, 561, 534, 635, 567, 523, 620, 565, 528, 522, 586, 599, 528, 639, 634, 562, 547, 659, 613, 510, 540, 580, 477, 535, 586, 577, 610, 531, 568, 630, 646, 564, 593, 692, 595, 548, 535, 561, 551, 513, 597, 628, 510, 423, 571, 598, 543, 499, 572, 544, 493, 522, 531, 550, 480, 539, 536, 522, 542, 509, 550, 484, 541, 522, 485, 480, 487, 564, 601, 578, 590, 544, 515, 617, 490, 557, 565, 603, 565, 535, 531, 479, 519, 566, 543, 629, 574, 597, 589, 500, 589, 578, 581, 572, 518, 577, 601, 558, 591, 592, 676, 611, 550, 601, 581, 603, 647, 681, 655, 654, 647, 539, 569, 634, 544, 587, 479, 512, 558, 466, 492, 599, 565, 564, 501, 556, 601, 570, 555, 629, 641, 561, 563, 641, 658, 593, 725, 622, 506, 522, 620, 597, 534, 488, 586, 640, 509, 503, 598, 569, 516, 536, 615, 582, 528, 574, 527, 539, 536, 586, 563, 601, 646, 599, 556, 528, 490, 557, 604, 546, 574, 598, 629, 581, 496, 540, 647, 597, 599, 618, 620, 619, 475, 464, 590, 594, 522, 558, 601, 727, 557, 524, 600, 573, 593, 594, 562, 600, 613, 636, 646, 557, 510, 520, 555, 643, 594, 697, 743, 677, 595, 557, 525, 581, 571, 669, 697, 591, 542, 533, 607, 678, 733, 767, 688, 685, 672, 721, 536, 668, 727, 622, 529, 584, 787, 745, 1007, 739, 939, 891, 750, 651, 1129, 1371, 2058, 977, 1675, 1739, 1215, 722, 1653, 2618, 4819, 2209, 4743, 4432, 2275, 1623, 4529, 6625, 8667, 3929, 9508, 8272, 3725, 2822, 9637, 13366, 8458, 4939, 10198, 8158, 3899, 3321, 10843, 14091, 4345, 3484, 5539, 4420, 2377, 2461, 6113, 7280, 2128, 1960, 3115, 2355, 1234, 1511, 3028, 3299, 1927, 2800, 3258, 2022, 1293, 1847, 2612, 2446, 1482, 2740, 2962, 1622, 1042, 1702, 1981, 1609, 986, 1885, 2124, 1372, 729, 1306, 1398, 1303, 784, 814, 1031, 836, 674, 842, 954, 1074, 739, 713, 775, 731, 731, 756, 960, 957, 1394, 1304, 691, 1548, 1436, 1139, 1520, 1334, 1771, 1450, 844, 2096, 1777, 1349, 1849, 1597, 968, 893, 944, 1232, 997, 844, 1085, 1022, 829, 898, 918, 793, 760, 660, 708, 834, 881, 869, 878, 825, 877, 766, 795, 909, 1373, 2067, 1806, 950, 1085, 1488, 1623, 1188, 2291, 4148, 3678, 1383, 1686, 2128, 2054, 1364, 3086, 6016, 5546, 2168, 2043, 2350, 2439, 1659, 2512, 4585, 4019, 1455, 1547, 1649, 1992, 1358, 1618, 2150, 1626, 943, 984, 1160, 1314, 987, 1041, 1215, 981, 712, 821, 1031, 961, 702, 989, 926, 690, 627, 704, 823, 741, 772, 921, 894, 846, 800, 754, 682, 735, 899, 1176, 1217, 1213, 1371, 1116, 886, 846, 956, 1221, 1254, 1449, 1686, 1370, 1046, 795, 912, 896, 955, 1184, 1160, 937, 854, 811, 852, 714, 757, 856, 716, 563, 555, 642, 700, 729, 727, 896, 826, 634, 608, 748, 826, 571, 589, 918, 904, 598, 644, 962, 900, 643, 613, 747, 738, 632, 603, 792, 779, 664, 684, 678, 692, 744, 662, 642, 640, 776, 769, 664, 739, 700, 661, 696, 703, 818, 820, 682, 776, 611, 663, 696, 677, 779, 697, 626, 757, 672, 641, 615, 629, 623, 581, 631, 651, 624, 599, 714, 686, 573, 532, 610, 556, 548, 556, 660, 725, 569, 643, 699, 689, 631, 585, 682, 687, 616, 655, 759, 634, 565, 664, 692, 685, 573, 617, 610, 578, 650, 688, 673, 592, 495, 659, 583, 604, 617, 546, 592, 519, 603, 589, 601, 605, 593, 497, 553, 642, 681, 614, 549, 543, 588, 543, 458, 601, 595, 587, 649, 593, 622, 616, 566, 573, 686, 707, 651, 585, 557, 595, 540, 589, 732, 687, 615, 588, 662, 702, 643, 637, 657, 585, 611, 626, 713, 717, 602, 702, 584, 598, 760, 711, 596, 588, 470, 592, 663, 543, 725, 748, 599, 564, 544, 667, 873, 656, 719, 861, 661, 688, 654, 807, 852, 703, 622, 668, 631, 695, 655, 733, 592, 573, 651, 618, 626, 649, 598, 633, 646, 510, 670, 651, 552, 603, 676, 802, 773, 557, 801, 786, 607, 588, 876, 1029, 691, 689, 1068, 990, 656, 643, 955, 1082, 590, 977, 1157, 965, 665, 822, 1173, 1024, 572, 920, 985, 840, 665, 717, 970, 859, 554, 720, 705, 643, 640, 690, 638, 578, 472, 473, 503, 571, 549, 524, 523, 550, 468, 493, 681, 687, 562, 493, 602, 594, 458, 414, 545, 658, 601, 556, 568, 569, 533, 467, 444, 436, 449, 416, 468, 546, 464, 487, 538, 471, 425, 469, 474, 477, 480, 529, 512, 510, 525, 490, 465, 477, 492, 426, 445, 499, 484, 357, 412, 504, 465, 457, 491, 430, 378, 398, 481, 531, 530, 525, 509, 477, 469, 459, 406, 494, 412, 455, 450, 430, 440, 401, 403, 409]"
1.066187858581543,-0.010413547977805138,-0.6294800043106079,0.29455462098121643,-0.15560203790664673,-0.46127328276634216,0.20594044029712677,-0.2401663064956665,1.1957645416259766,17.25,-0.20826590061187744,1.210641860961914,27.5,-0.003988862037658691,1.0022163391113281,29.5,0.18240678310394287,0.9421348571777344,25.75,0.30056703090667725,1.0292530059814453,20.75,"[736, 691, 559, 662, 817, 663, 562, 688, 659, 560, 625, 698, 728, 666, 680, 691, 551, 474, 596, 602, 537, 596, 609, 585, 570, 458, 473, 502, 496, 464, 486, 544, 501, 501, 520, 483, 486, 511, 497, 497, 530, 564, 528, 456, 442, 579, 563, 479, 599, 560, 440, 445, 476, 487, 483, 517, 533, 516, 498, 496, 499, 460, 489, 482, 518, 596, 579, 549, 486, 493, 521, 451, 580, 610, 570, 539, 543, 598, 571, 506, 621, 648, 573, 635, 664, 647, 577, 545, 527, 579, 525, 571, 597, 606, 538, 491, 474, 515, 476, 503, 452, 431, 511, 465, 540, 556, 557, 545, 528, 567, 564, 494, 497, 542, 605, 561, 556, 603, 547, 496, 622, 623, 587, 501, 515, 624, 589, 565, 598, 542, 522, 483, 528, 586, 506, 571, 641, 551, 584, 537, 564, 639, 515, 584, 609, 594, 623, 588, 599, 596, 588, 631, 636, 614, 507, 535, 525, 601, 645, 574, 657, 591, 507, 510, 477, 525, 510, 533, 653, 668, 581, 523, 530, 607, 538, 559, 673, 641, 633, 556, 628, 636, 598, 693, 597, 542, 521, 478, 597, 659, 582, 572, 486, 477, 481, 491, 534, 624, 615, 464, 575, 550, 518, 599, 584, 622, 633, 572, 551, 580, 491, 474, 523, 527, 532, 518, 502, 566, 555, 465, 498, 571, 562, 540, 499, 552, 511, 431, 543, 609, 484, 456, 616, 603, 629, 659, 711, 694, 565, 561, 600, 542, 514, 624, 672, 612, 548, 533, 584, 600, 571, 566, 593, 515, 484, 542, 520, 527, 505, 462, 568, 573, 474, 512, 477, 476, 536, 540, 485, 509, 567, 518, 491, 519, 525, 498, 510, 613, 545, 468, 530, 568, 514, 532, 540, 527, 482, 454, 586, 616, 582, 584, 545, 554, 548, 564, 649, 546, 583, 581, 492, 587, 616, 655, 658, 614, 569, 501, 579, 566, 561, 627, 602, 637, 460, 461, 564, 587, 600, 595, 541, 633, 566, 473, 533, 574, 679, 593, 534, 646, 635, 528, 625, 591, 634, 574, 549, 684, 632, 542, 574, 602, 620, 519, 611, 579, 575, 555, 601, 553, 604, 645, 513, 512, 489, 525, 623, 538, 594, 637, 577, 559, 605, 653, 630, 576, 606, 614, 608, 657, 655, 613, 551, 561, 557, 552, 598, 676, 695, 574, 610, 608, 540, 543, 537, 613, 601, 519, 594, 576, 606, 549, 678, 827, 716, 594, 623, 714, 713, 646, 701, 750, 545, 545, 648, 729, 682, 571, 739, 699, 650, 713, 715, 809, 675, 652, 707, 682, 667, 759, 723, 668, 666, 634, 676, 673, 715, 667, 617, 646, 765, 736, 652, 668, 665, 602, 651, 661, 745, 714, 479, 470, 475, 533, 598, 592, 562, 505, 605, 616, 569, 537, 574, 576, 599, 582, 562, 581, 608, 609, 594, 607, 664, 597, 1099, 831, 911, 853, 791, 764, 1002, 1285, 2548, 1192, 1642, 1622, 1457, 1033, 2393, 3412, 3012, 757, 2735, 2632, 1646, 781, 3115, 4523, 9622, 3079, 10430, 9602, 4453, 2040, 10350, 14918, 12338, 3215, 12314, 11576, 5261, 2093, 12216, 18371, 8422, 6627, 12325, 9517, 4252, 3409, 10707, 13921, 5436, 8319, 12412, 8565, 3203, 4379, 10471, 11573, 3305, 4996, 7228, 4858, 1960, 2874, 6574, 7089, 1210, 1785, 2291, 1625, 930, 1340, 2352, 2269, 944, 875, 1188, 993, 815, 816, 1150, 1325, 707, 836, 1067, 804, 643, 686, 1016, 1063, 793, 905, 793, 641, 669, 690, 826, 772, 1396, 1445, 523, 1554, 1612, 1078, 1345, 1348, 2293, 2018, 778, 2890, 2673, 1477, 2121, 2144, 1860, 1564, 897, 2217, 2027, 1114, 1722, 1780, 1217, 1244, 896, 1014, 983, 921, 950, 1091, 628, 771, 869, 834, 743, 686, 768, 786, 1152, 1128, 888, 1080, 1022, 860, 844, 901, 1316, 1557, 1462, 1105, 1120, 855, 875, 972, 1477, 3197, 3093, 1419, 1248, 1609, 1861, 1370, 1917, 4202, 3947, 1546, 1477, 1986, 2491, 1700, 1665, 3254, 3161, 1656, 1129, 1508, 2097, 1618, 1436, 2212, 1979, 1321, 1008, 1192, 1538, 1147, 993, 1360, 1236, 883, 854, 1105, 1128, 794, 973, 1080, 775, 621, 806, 836, 759, 692, 1204, 1399, 1223, 1006, 884, 921, 831, 899, 1251, 1420, 1360, 1160, 881, 845, 932, 914, 874, 982, 1051, 1036, 761, 687, 799, 743, 732, 749, 755, 815, 702, 656, 690, 728, 779, 678, 621, 673, 728, 698, 604, 659, 631, 570, 579, 634, 612, 540, 539, 627, 645, 644, 652, 654, 671, 587, 698, 731, 624, 660, 634, 625, 674, 660, 659, 658, 565, 615, 637, 616, 661, 678, 646, 597, 593, 591, 613, 685, 623, 652, 672, 571, 658, 703, 696, 766, 697, 634, 624, 699, 679, 734, 646, 667, 628, 634, 702, 674, 615, 677, 580, 604, 640, 635, 692, 642, 662, 616, 581, 688, 646, 652, 705, 688, 679, 552, 578, 680, 639, 554, 540, 608, 710, 672, 570, 567, 577, 554, 551, 597, 575, 660, 614, 608, 601, 569, 584, 491, 506, 582, 544, 562, 618, 544, 556, 470, 618, 582, 520, 601, 598, 483, 524, 594, 669, 599, 606, 617, 566, 505, 584, 692, 636, 590, 683, 638, 626, 552, 627, 723, 669, 632, 604, 608, 659, 646, 510, 628, 636, 728, 712, 544, 553, 602, 541, 537, 698, 727, 660, 642, 645, 550, 641, 661, 1092, 822, 997, 888, 762, 689, 1101, 1430, 1295, 1131, 1900, 1408, 882, 881, 2141, 2499, 767, 1171, 1545, 1103, 711, 929, 1576, 1586, 709, 837, 1070, 876, 667, 742, 1077, 1053, 717, 620, 736, 777, 729, 598, 837, 880, 683, 635, 575, 581, 621, 575, 558, 688, 673, 681, 617, 590, 685, 581, 640, 736, 661, 669, 665, 604, 534, 469, 609, 723, 658, 942, 995, 816, 724, 737, 965, 917, 720, 916, 972, 720, 671, 889, 1002, 962, 633, 759, 778, 597, 569, 681, 793, 771, 565, 623, 628, 556, 606, 621, 599, 593, 606, 644, 601, 533, 569, 646, 612, 525, 510, 480, 455, 501, 423, 509, 534, 474, 505, 449, 427, 535, 449, 478, 513, 454, 507, 439, 413, 482, 488, 497, 427, 435, 533, 470, 464, 506, 443, 498, 531, 510, 336, 422, 445, 407, 402, 404, 435, 399, 430, 437, 437, 447, 472, 451, 356, 389, 435, 396, 394, 418, 394, 385, 397, 476, 403, 411, 453, 404, 396, 434, 434, 459]"
1.0759612321853638,-0.021697528660297394,-0.6736215949058533,0.25151097774505615,-0.18600961565971375,-0.4798087477684021,0.10972155630588531,-1.0308432579040527,1.6197681427001953,23.25,-0.23748159408569336,1.3339519500732422,19.5,0.6186795234680176,0.5863666534423828,15.25,0.8133721351623535,0.7002353668212891,19.0,1.7264676094055176,1.5131950378417969,16.25,"[555, 691, 685, 538, 613, 536, 685, 693, 535, 584, 574, 550, 586, 613, 710, 600, 480, 539, 444, 481, 529, 499, 525, 444, 579, 561, 464, 479, 502, 440, 475, 486, 538, 520, 495, 464, 433, 432, 454, 480, 594, 585, 524, 535, 475, 562, 611, 589, 501, 522, 548, 585, 533, 559, 573, 514, 555, 509, 530, 557, 539, 474, 462, 539, 532, 616, 553, 544, 584, 525, 451, 471, 513, 558, 545, 555, 572, 539, 566, 515, 533, 537, 490, 573, 628, 525, 446, 479, 505, 528, 463, 484, 585, 527, 431, 487, 444, 466, 504, 547, 573, 491, 496, 475, 521, 507, 558, 585, 484, 426, 553, 548, 652, 577, 464, 558, 616, 561, 553, 535, 655, 538, 564, 605, 604, 559, 481, 609, 501, 512, 569, 509, 464, 513, 535, 533, 453, 500, 561, 584, 502, 433, 577, 605, 563, 534, 518, 600, 561, 484, 580, 579, 630, 634, 591, 563, 506, 474, 575, 581, 668, 700, 608, 612, 597, 485, 572, 586, 596, 678, 634, 531, 699, 661, 552, 540, 571, 589, 601, 558, 621, 617, 582, 597, 572, 603, 625, 611, 564, 504, 592, 583, 604, 548, 572, 601, 499, 424, 502, 608, 603, 563, 639, 599, 462, 468, 513, 593, 646, 551, 579, 588, 573, 507, 501, 681, 498, 480, 539, 528, 520, 557, 555, 555, 463, 549, 590, 533, 462, 526, 564, 481, 632, 678, 628, 624, 638, 551, 466, 553, 657, 656, 640, 598, 681, 612, 492, 564, 629, 651, 604, 545, 680, 650, 554, 599, 604, 600, 503, 533, 575, 570, 554, 608, 530, 559, 528, 474, 568, 593, 524, 465, 509, 562, 563, 506, 521, 589, 591, 544, 551, 549, 505, 600, 634, 530, 528, 566, 569, 649, 564, 556, 589, 516, 527, 510, 593, 662, 555, 549, 638, 607, 567, 487, 521, 560, 562, 592, 562, 565, 539, 532, 565, 570, 558, 514, 535, 632, 479, 441, 616, 551, 562, 546, 492, 472, 483, 530, 511, 518, 511, 519, 473, 474, 522, 516, 600, 516, 509, 581, 535, 549, 626, 634, 633, 656, 722, 605, 634, 703, 635, 646, 639, 708, 647, 542, 619, 653, 527, 532, 513, 596, 646, 544, 497, 553, 525, 462, 629, 684, 677, 578, 556, 586, 494, 552, 654, 652, 630, 617, 645, 672, 572, 595, 566, 546, 635, 670, 578, 537, 555, 598, 578, 497, 648, 722, 597, 504, 565, 584, 698, 713, 630, 578, 556, 667, 688, 636, 819, 960, 843, 657, 673, 924, 889, 718, 986, 1138, 940, 682, 748, 1048, 996, 773, 905, 1192, 952, 629, 772, 852, 889, 675, 732, 820, 772, 697, 647, 690, 725, 687, 604, 599, 596, 650, 654, 675, 697, 660, 625, 560, 567, 663, 628, 634, 631, 587, 712, 666, 683, 680, 582, 528, 611, 667, 842, 978, 930, 734, 681, 651, 789, 823, 1398, 2140, 2517, 1872, 1093, 1062, 1771, 1810, 3569, 3833, 6722, 5384, 2280, 1723, 4925, 6359, 5515, 4532, 8836, 7248, 2644, 2459, 7477, 9633, 3708, 5577, 6622, 4342, 1598, 3029, 5616, 5816, 3491, 7488, 7164, 3048, 1691, 3674, 4645, 2589, 3309, 5646, 5372, 2593, 1713, 3003, 4128, 3433, 2648, 2534, 2662, 1723, 1633, 1782, 3501, 3750, 2280, 1575, 1796, 1482, 1666, 1417, 3004, 3479, 1764, 1220, 1141, 1066, 1250, 1129, 1829, 2163, 1244, 1008, 747, 757, 912, 732, 877, 1237, 893, 950, 595, 956, 997, 634, 840, 834, 1379, 1307, 756, 1701, 1637, 932, 1337, 1317, 1475, 1141, 911, 1790, 1563, 837, 1305, 1447, 964, 850, 801, 988, 904, 674, 788, 1019, 885, 755, 709, 703, 726, 789, 740, 896, 727, 675, 683, 689, 686, 667, 657, 687, 618, 587, 777, 640, 569, 594, 704, 771, 1085, 1597, 1734, 1001, 891, 1136, 1050, 991, 1320, 2282, 2163, 1118, 1016, 1503, 1368, 980, 995, 1805, 1770, 866, 887, 1268, 1299, 914, 686, 1145, 1119, 681, 728, 856, 914, 682, 679, 851, 975, 731, 688, 726, 799, 743, 721, 906, 866, 747, 738, 726, 796, 705, 809, 985, 946, 876, 720, 908, 1035, 868, 1331, 1510, 1632, 1522, 929, 1525, 1839, 1470, 1385, 1587, 1654, 1550, 1048, 1615, 1878, 1467, 962, 1042, 1189, 1266, 935, 1042, 1208, 1032, 716, 760, 808, 973, 868, 710, 706, 722, 713, 670, 698, 693, 752, 719, 694, 721, 627, 577, 646, 596, 679, 762, 773, 719, 616, 693, 659, 603, 639, 630, 637, 593, 625, 595, 587, 626, 626, 616, 756, 711, 675, 733, 625, 725, 663, 643, 800, 752, 754, 733, 554, 687, 640, 694, 767, 661, 648, 617, 507, 574, 566, 541, 592, 591, 734, 704, 679, 647, 583, 553, 776, 835, 758, 722, 757, 680, 741, 645, 957, 1008, 698, 749, 763, 679, 702, 616, 847, 841, 685, 801, 610, 547, 632, 613, 729, 628, 628, 807, 712, 576, 619, 647, 758, 662, 531, 654, 668, 613, 582, 604, 666, 593, 598, 592, 654, 530, 456, 565, 626, 583, 567, 527, 630, 647, 522, 592, 638, 614, 554, 598, 685, 566, 463, 612, 623, 518, 628, 620, 629, 507, 486, 549, 590, 604, 639, 618, 579, 534, 543, 567, 558, 601, 733, 675, 691, 679, 630, 709, 758, 725, 657, 778, 1014, 1009, 700, 960, 1450, 1269, 682, 848, 853, 939, 764, 964, 1349, 1170, 1185, 1310, 1555, 1111, 963, 1283, 2278, 2192, 1504, 1975, 2772, 1726, 1080, 1930, 4055, 3931, 1019, 1474, 2141, 1479, 778, 1580, 3051, 2887, 709, 689, 936, 745, 572, 793, 1174, 1162, 545, 539, 672, 668, 616, 596, 602, 639, 615, 593, 837, 752, 511, 660, 740, 780, 616, 531, 674, 654, 577, 638, 724, 727, 587, 703, 611, 483, 475, 584, 631, 545, 590, 758, 868, 638, 605, 633, 751, 775, 534, 638, 779, 628, 518, 558, 708, 730, 519, 512, 611, 619, 543, 513, 586, 625, 455, 491, 631, 625, 520, 527, 588, 591, 425, 531, 600, 523, 461, 525, 533, 519, 396, 509, 546, 415, 383, 449, 503, 470, 432, 479, 576, 533, 439, 481, 447, 440, 418, 532, 622, 489, 458, 575, 588, 541, 372, 507, 562, 405, 390, 497, 525, 484, 406, 440, 490, 443, 431, 396, 472, 476, 409, 531, 482, 482, 488, 437, 466, 415, 407, 435, 460, 409, 370, 349, 458, 452]"
1.0967599153518677,-0.018464814871549606,-0.8178650140762329,0.22962485253810883,-0.1989516317844391,-0.6261405348777771,0.03924598544836044,1.0620489716529846,2.1956920623779297,19.25,1.2864962220191956,1.6396522521972656,16.25,1.7193689942359924,1.3807296752929688,22.5,1.7694368958473206,1.1301040649414062,21.75,1.7764464020729065,0.9753227233886719,20.25,"[551, 639, 710, 683, 668, 680, 710, 634, 521, 585, 666, 767, 736, 663, 669, 623, 499, 586, 680, 642, 620, 645, 580, 565, 513, 528, 435, 469, 505, 543, 485, 481, 501, 385, 396, 575, 528, 424, 463, 498, 444, 455, 434, 511, 478, 480, 629, 564, 460, 517, 526, 520, 516, 543, 552, 482, 516, 491, 452, 445, 480, 436, 431, 508, 496, 500, 467, 475, 487, 461, 489, 523, 590, 501, 532, 597, 551, 579, 588, 581, 542, 438, 536, 597, 518, 484, 545, 527, 574, 577, 605, 654, 528, 479, 541, 576, 515, 580, 551, 507, 573, 547, 520, 518, 504, 505, 494, 512, 529, 526, 568, 569, 462, 491, 494, 539, 505, 432, 522, 542, 575, 497, 517, 511, 479, 544, 520, 573, 533, 521, 536, 520, 446, 466, 485, 506, 471, 513, 513, 595, 540, 453, 547, 536, 515, 565, 510, 546, 618, 515, 545, 589, 449, 589, 562, 478, 540, 524, 578, 566, 532, 620, 568, 504, 504, 574, 645, 523, 587, 556, 514, 574, 615, 573, 671, 602, 626, 633, 616, 622, 604, 658, 687, 587, 550, 559, 534, 592, 598, 640, 615, 557, 489, 480, 547, 534, 455, 581, 582, 506, 562, 530, 494, 509, 558, 535, 511, 527, 602, 582, 493, 537, 600, 528, 509, 574, 659, 572, 482, 603, 670, 548, 519, 586, 529, 471, 441, 481, 531, 543, 506, 520, 597, 512, 488, 628, 569, 517, 586, 640, 530, 461, 513, 595, 525, 486, 598, 637, 624, 537, 561, 617, 557, 555, 561, 634, 546, 508, 568, 589, 483, 481, 488, 551, 541, 495, 577, 621, 605, 562, 556, 608, 546, 484, 551, 522, 569, 583, 509, 562, 484, 528, 590, 522, 555, 587, 523, 478, 539, 504, 474, 534, 538, 479, 399, 499, 587, 525, 543, 598, 601, 540, 490, 573, 576, 492, 550, 580, 565, 568, 600, 653, 548, 564, 576, 571, 597, 597, 566, 536, 498, 608, 600, 547, 549, 509, 507, 493, 507, 647, 659, 621, 613, 534, 582, 585, 465, 601, 701, 791, 630, 489, 583, 573, 575, 574, 616, 648, 596, 528, 616, 603, 667, 594, 607, 612, 590, 575, 556, 654, 741, 549, 563, 612, 571, 619, 532, 691, 692, 643, 596, 535, 531, 593, 654, 691, 574, 574, 593, 634, 692, 687, 631, 606, 553, 545, 587, 557, 648, 692, 589, 621, 633, 675, 728, 626, 658, 751, 668, 636, 664, 772, 800, 675, 686, 761, 707, 558, 707, 796, 742, 682, 694, 754, 789, 600, 789, 744, 674, 711, 635, 700, 746, 707, 751, 784, 717, 768, 730, 667, 640, 681, 724, 730, 938, 770, 619, 668, 696, 799, 724, 732, 865, 844, 691, 619, 785, 828, 626, 723, 837, 790, 625, 604, 664, 669, 776, 774, 946, 822, 689, 732, 857, 963, 1385, 1369, 1444, 1377, 1166, 1072, 1595, 1793, 2433, 2053, 3423, 3275, 2005, 1595, 2955, 3479, 2988, 1870, 4831, 4525, 2135, 1474, 3884, 5040, 2696, 2239, 2845, 2456, 1450, 1417, 2619, 3336, 3269, 4953, 3903, 1404, 1731, 2906, 2941, 1364, 3000, 4319, 3703, 1961, 1633, 3011, 2915, 1718, 2200, 2146, 2236, 1682, 1319, 1852, 2512, 2554, 1670, 1450, 2177, 1727, 1161, 1135, 2309, 2810, 1177, 998, 1350, 1161, 983, 792, 1397, 1790, 1072, 807, 1066, 947, 863, 895, 1342, 1528, 1150, 932, 1470, 1114, 948, 801, 1774, 2091, 1525, 1090, 1568, 1498, 1124, 927, 1887, 2180, 1738, 1163, 1455, 1918, 1586, 984, 1922, 2226, 1120, 807, 1165, 1378, 1164, 784, 1465, 1708, 844, 820, 678, 682, 688, 665, 749, 832, 733, 902, 751, 773, 810, 739, 678, 731, 949, 1398, 1257, 681, 863, 914, 873, 788, 951, 1726, 1637, 885, 834, 990, 1134, 801, 669, 1190, 1231, 780, 652, 847, 961, 706, 708, 890, 928, 698, 592, 741, 806, 726, 738, 895, 893, 722, 649, 650, 754, 754, 937, 1002, 861, 722, 670, 745, 725, 712, 654, 821, 965, 865, 631, 653, 807, 721, 764, 874, 992, 875, 557, 676, 838, 800, 770, 703, 778, 781, 657, 598, 637, 719, 746, 662, 634, 750, 719, 606, 545, 684, 1080, 832, 735, 912, 794, 700, 618, 843, 1388, 1169, 1070, 1176, 1015, 1076, 886, 1179, 1113, 1023, 1191, 1214, 916, 983, 915, 1083, 909, 905, 992, 1053, 932, 950, 931, 943, 663, 692, 881, 882, 724, 687, 823, 891, 676, 542, 687, 727, 618, 561, 733, 797, 730, 649, 562, 666, 731, 769, 652, 641, 854, 767, 677, 718, 628, 770, 760, 698, 808, 697, 747, 717, 624, 701, 715, 744, 620, 678, 722, 675, 662, 620, 615, 674, 618, 560, 603, 665, 583, 567, 627, 680, 676, 583, 597, 616, 644, 670, 676, 755, 622, 609, 691, 653, 631, 765, 748, 703, 602, 669, 701, 623, 629, 708, 692, 624, 611, 666, 604, 581, 609, 686, 693, 623, 576, 589, 632, 662, 671, 746, 722, 664, 546, 496, 632, 676, 562, 564, 635, 612, 599, 631, 565, 584, 676, 642, 614, 620, 617, 613, 608, 689, 679, 602, 606, 676, 616, 621, 701, 676, 613, 691, 723, 615, 812, 918, 1220, 1308, 814, 1130, 2147, 1933, 2510, 1790, 3054, 3316, 2278, 2158, 5871, 6037, 3184, 1671, 3375, 3629, 2661, 1930, 6198, 6828, 1254, 1036, 1405, 1378, 1131, 937, 1802, 1978, 3803, 2807, 5564, 4500, 2463, 2830, 7964, 8610, 4391, 2519, 5955, 5086, 2764, 2543, 8117, 9232, 2677, 1027, 2960, 2617, 1611, 992, 3433, 4517, 1322, 771, 1383, 1294, 973, 823, 1454, 1845, 936, 675, 956, 1020, 885, 744, 1034, 1123, 860, 721, 783, 922, 821, 658, 958, 1015, 820, 629, 629, 778, 700, 677, 1082, 1131, 710, 540, 503, 662, 682, 602, 921, 978, 682, 720, 752, 760, 727, 709, 943, 947, 612, 796, 713, 653, 654, 763, 821, 747, 582, 628, 446, 524, 548, 537, 548, 509, 523, 544, 501, 557, 557, 528, 562, 490, 523, 400, 536, 643, 525, 522, 570, 553, 646, 532, 569, 615, 545, 548, 557, 693, 491, 440, 556, 615, 522, 550, 589, 575, 540, 442, 484, 524, 462, 431, 489, 563, 468, 463, 396, 422, 432, 386, 437, 439, 479, 453, 438, 425, 471, 478, 437, 481, 430, 381, 422, 545, 504, 402, 494, 530, 437, 414, 420, 445, 416, 431, 414, 430]"
1.0791137218475342,-0.07575349509716034,-0.5881875157356262,0.16170121729373932,-0.23278801143169403,-0.25343748927116394,-0.011336442083120346,-0.11168599128723145,1.3269424438476562,20.25,0.4469287395477295,2.467060089111328,17.25,0.6450545787811279,0.8133888244628906,16.25,0.7047069072723389,2.334451675415039,16.5,0.9775054454803467,0.41942596435546875,19.75,"[501, 573, 604, 563, 524, 565, 606, 578, 513, 609, 567, 583, 634, 610, 553, 539, 495, 622, 611, 534, 511, 558, 521, 419, 525, 579, 563, 568, 425, 438, 526, 468, 543, 542, 582, 522, 480, 490, 540, 557, 521, 543, 523, 479, 507, 534, 524, 531, 583, 597, 541, 521, 555, 587, 544, 489, 543, 577, 531, 506, 551, 489, 505, 556, 512, 505, 438, 376, 436, 467, 501, 541, 509, 468, 465, 484, 455, 513, 567, 552, 511, 552, 563, 523, 560, 619, 572, 478, 583, 590, 563, 502, 552, 561, 507, 512, 562, 556, 470, 487, 498, 459, 481, 476, 537, 556, 543, 515, 542, 648, 530, 437, 574, 512, 546, 570, 504, 534, 571, 617, 541, 573, 561, 431, 490, 544, 550, 538, 549, 618, 588, 515, 520, 521, 577, 555, 602, 561, 496, 533, 580, 522, 535, 590, 603, 446, 533, 549, 521, 482, 518, 658, 516, 568, 637, 536, 514, 596, 605, 550, 504, 531, 588, 508, 487, 563, 578, 530, 491, 554, 570, 599, 559, 516, 576, 612, 529, 496, 519, 539, 515, 552, 546, 507, 501, 431, 510, 616, 492, 456, 532, 560, 549, 532, 571, 638, 549, 457, 542, 597, 637, 604, 581, 599, 528, 638, 631, 573, 551, 558, 522, 540, 532, 574, 514, 460, 561, 552, 522, 520, 561, 551, 489, 507, 558, 543, 543, 501, 537, 591, 597, 602, 645, 640, 628, 611, 560, 592, 583, 580, 646, 584, 532, 630, 612, 555, 518, 521, 552, 568, 554, 580, 536, 505, 485, 547, 551, 493, 485, 584, 480, 521, 528, 528, 593, 609, 588, 563, 557, 603, 617, 580, 441, 550, 635, 603, 507, 515, 650, 565, 435, 519, 544, 596, 557, 477, 572, 527, 536, 564, 488, 500, 520, 521, 543, 505, 593, 581, 533, 537, 543, 567, 499, 484, 622, 582, 526, 522, 650, 689, 518, 501, 551, 499, 460, 544, 539, 531, 500, 564, 569, 558, 391, 527, 607, 524, 438, 490, 710, 629, 485, 596, 572, 532, 542, 623, 545, 623, 638, 577, 515, 517, 568, 569, 609, 621, 720, 701, 621, 620, 646, 627, 703, 635, 668, 651, 595, 609, 625, 664, 663, 615, 639, 648, 621, 603, 630, 650, 772, 794, 583, 531, 574, 740, 660, 567, 847, 840, 684, 623, 639, 675, 557, 673, 763, 906, 868, 667, 668, 685, 679, 722, 674, 863, 921, 722, 629, 653, 856, 858, 688, 888, 1091, 870, 592, 747, 1029, 1004, 701, 860, 881, 708, 689, 845, 871, 748, 757, 723, 605, 585, 731, 724, 654, 664, 821, 812, 630, 669, 780, 735, 604, 656, 718, 682, 615, 639, 692, 656, 612, 563, 630, 608, 578, 568, 538, 622, 601, 585, 596, 567, 583, 568, 460, 502, 551, 585, 760, 670, 733, 716, 597, 597, 660, 731, 1249, 1002, 1777, 1774, 1067, 770, 1454, 1847, 2439, 2043, 3909, 3376, 1465, 1168, 2803, 3837, 3542, 3685, 7604, 6125, 1917, 1821, 5850, 7383, 3130, 5997, 10254, 7477, 2068, 2933, 8083, 9023, 1266, 5235, 7295, 4619, 1155, 2527, 5701, 5565, 1653, 3194, 4512, 2910, 1084, 1774, 4244, 4348, 2776, 4638, 6060, 3851, 1364, 2559, 5530, 5653, 2495, 3524, 4429, 2867, 1339, 2052, 4097, 4391, 1236, 1583, 1922, 1296, 982, 1037, 1805, 2003, 617, 863, 1035, 714, 696, 677, 1177, 1211, 740, 737, 976, 868, 772, 771, 1281, 1339, 721, 717, 1024, 942, 718, 882, 1113, 1069, 792, 806, 887, 870, 718, 692, 837, 881, 821, 770, 746, 821, 727, 583, 686, 818, 713, 631, 646, 733, 609, 582, 726, 709, 886, 1209, 1006, 667, 757, 774, 827, 677, 1005, 1762, 1662, 804, 775, 1082, 1048, 728, 1477, 3161, 3110, 1297, 1292, 1746, 1339, 950, 2000, 4256, 4282, 1772, 1560, 2195, 1629, 1181, 1913, 3891, 3850, 1766, 1293, 1866, 1772, 1196, 1023, 2046, 2280, 1363, 768, 1163, 1224, 1069, 868, 1034, 1359, 1171, 759, 914, 894, 971, 821, 874, 981, 858, 694, 781, 727, 760, 643, 813, 750, 700, 798, 771, 676, 600, 835, 983, 958, 890, 849, 740, 659, 659, 1116, 1085, 1120, 981, 881, 929, 811, 891, 1050, 957, 956, 980, 903, 1007, 697, 787, 1043, 998, 701, 718, 912, 903, 709, 785, 935, 924, 725, 603, 741, 692, 693, 802, 808, 747, 743, 728, 626, 686, 815, 850, 749, 712, 712, 684, 662, 532, 643, 791, 809, 741, 743, 823, 717, 650, 669, 785, 683, 581, 626, 787, 710, 759, 898, 863, 805, 616, 732, 818, 702, 694, 872, 997, 709, 538, 778, 873, 764, 602, 772, 871, 720, 782, 796, 803, 860, 779, 774, 742, 700, 818, 857, 705, 795, 818, 823, 766, 566, 700, 686, 678, 742, 704, 728, 722, 692, 558, 526, 685, 706, 580, 819, 924, 727, 573, 661, 721, 713, 644, 871, 938, 705, 727, 699, 573, 689, 754, 779, 767, 677, 623, 629, 616, 677, 700, 597, 671, 752, 694, 732, 696, 720, 696, 600, 743, 758, 745, 687, 784, 826, 647, 711, 837, 600, 558, 653, 780, 716, 591, 657, 731, 673, 664, 730, 712, 620, 564, 648, 713, 727, 757, 992, 999, 776, 721, 1289, 1327, 1481, 809, 1371, 1772, 1308, 997, 2667, 2930, 2590, 1057, 2311, 2899, 2240, 1294, 4728, 5340, 2876, 1144, 2578, 2984, 2532, 1288, 4898, 5717, 1739, 834, 1665, 1597, 1442, 871, 2888, 3408, 1021, 737, 1152, 940, 710, 612, 1438, 1713, 922, 620, 995, 1027, 800, 546, 1035, 1316, 821, 613, 775, 914, 833, 630, 874, 1021, 713, 624, 717, 731, 655, 574, 824, 898, 821, 664, 732, 837, 716, 622, 838, 966, 962, 620, 765, 813, 762, 614, 896, 1170, 722, 652, 669, 723, 747, 636, 640, 754, 631, 612, 699, 709, 657, 516, 716, 861, 617, 631, 771, 734, 630, 600, 732, 795, 588, 604, 588, 535, 529, 592, 693, 657, 584, 577, 617, 618, 584, 458, 672, 636, 589, 513, 582, 618, 589, 537, 561, 559, 531, 509, 572, 618, 637, 583, 522, 536, 570, 491, 553, 652, 575, 462, 406, 522, 537, 537, 481, 508, 517, 470, 409, 479, 521, 460, 417, 440, 518, 472, 465, 488, 519, 471, 528, 550, 449, 519, 509, 499, 496, 492, 448, 458, 432, 501, 450, 442, 392, 438, 395, 409, 359, 427, 413, 399]"
1.2379056215286255,-0.03380607068538666,-1.200310468673706,0.3754991888999939,-0.162042036652565,-0.9371125102043152,0.1488512009382248,-0.601624608039856,1.3833045959472656,18.75,-0.601624608039856,1.6056060791015625,16.5,0.8715161085128784,-1.3788700103759766,17.0,0.9577759504318237,-1.2986183166503906,19.25,1.0410317182540894,-1.219940185546875,16.5,"[589, 594, 597, 569, 487, 571, 591, 597, 560, 636, 654, 589, 528, 593, 613, 634, 551, 479, 453, 515, 516, 518, 520, 537, 587, 566, 453, 432, 473, 487, 526, 571, 561, 516, 397, 491, 506, 507, 463, 510, 575, 586, 482, 506, 560, 535, 522, 501, 465, 435, 460, 512, 467, 431, 525, 488, 506, 552, 562, 548, 467, 476, 553, 527, 555, 501, 473, 449, 464, 451, 444, 547, 592, 536, 479, 508, 575, 522, 436, 577, 452, 576, 622, 581, 477, 471, 564, 561, 544, 581, 641, 595, 525, 599, 694, 656, 545, 521, 572, 603, 546, 582, 584, 583, 581, 557, 553, 525, 526, 485, 534, 603, 504, 544, 574, 543, 537, 569, 571, 526, 491, 530, 512, 587, 511, 535, 539, 477, 572, 584, 512, 527, 467, 563, 548, 447, 565, 495, 436, 508, 601, 508, 482, 511, 608, 575, 526, 623, 603, 524, 549, 539, 516, 577, 579, 543, 482, 525, 571, 514, 509, 440, 493, 514, 473, 485, 516, 530, 534, 478, 563, 572, 527, 499, 392, 485, 505, 518, 571, 544, 573, 501, 478, 468, 571, 614, 581, 549, 540, 576, 526, 494, 556, 576, 509, 517, 509, 561, 548, 479, 522, 590, 558, 548, 468, 548, 589, 521, 504, 542, 526, 522, 512, 559, 558, 501, 594, 548, 564, 591, 637, 608, 532, 569, 522, 564, 495, 552, 572, 514, 497, 495, 594, 635, 534, 532, 572, 624, 549, 506, 587, 588, 562, 602, 680, 604, 572, 575, 499, 517, 401, 480, 573, 520, 473, 470, 468, 489, 407, 425, 514, 536, 473, 429, 561, 646, 629, 498, 542, 606, 560, 485, 634, 683, 609, 549, 608, 601, 500, 501, 561, 477, 568, 646, 622, 540, 446, 562, 492, 488, 573, 599, 530, 515, 536, 575, 563, 563, 513, 553, 598, 554, 503, 471, 582, 631, 634, 548, 517, 575, 577, 550, 552, 532, 600, 564, 587, 620, 575, 543, 495, 563, 544, 480, 562, 618, 593, 553, 580, 531, 537, 560, 516, 511, 524, 538, 730, 573, 520, 693, 723, 695, 629, 662, 616, 616, 571, 599, 715, 683, 533, 530, 579, 624, 475, 521, 715, 662, 492, 524, 650, 703, 588, 556, 678, 692, 608, 597, 633, 803, 751, 629, 693, 724, 649, 549, 794, 796, 678, 599, 727, 733, 593, 650, 1316, 1077, 1101, 1049, 772, 812, 1027, 1298, 3447, 1815, 2452, 2783, 1680, 982, 2029, 3691, 4363, 1953, 3063, 3555, 2077, 1212, 2699, 4851, 2580, 1200, 1812, 2090, 1546, 968, 1781, 2963, 1208, 736, 929, 1025, 890, 652, 936, 1360, 744, 587, 623, 752, 676, 539, 652, 725, 584, 517, 517, 649, 544, 599, 613, 577, 667, 557, 580, 700, 596, 534, 645, 665, 643, 530, 574, 560, 545, 481, 560, 717, 945, 862, 921, 651, 707, 707, 1328, 1452, 2108, 1596, 1848, 1265, 1409, 1219, 2848, 3356, 1960, 1390, 2457, 1872, 1453, 946, 2894, 3597, 1137, 1900, 2564, 1901, 1241, 1061, 2377, 2389, 1232, 1370, 1894, 1487, 990, 859, 1654, 1877, 731, 602, 939, 947, 712, 540, 789, 909, 655, 605, 632, 615, 649, 659, 527, 549, 599, 629, 710, 676, 613, 590, 573, 657, 707, 1151, 1370, 994, 692, 815, 1244, 1164, 892, 1476, 1798, 1218, 699, 1006, 1728, 1599, 1083, 1204, 1711, 1367, 844, 1135, 2269, 2213, 1545, 1013, 1679, 1500, 1137, 1045, 2607, 2904, 1432, 988, 1633, 1434, 1042, 927, 2223, 2569, 1003, 853, 1208, 1054, 815, 825, 1397, 1507, 914, 675, 970, 895, 761, 581, 1089, 1273, 768, 754, 840, 791, 719, 606, 929, 960, 1327, 2180, 1993, 1054, 951, 1120, 1380, 948, 2837, 6005, 5352, 1896, 1865, 2344, 3266, 1771, 3525, 7520, 6718, 2229, 2242, 2861, 4062, 2104, 2549, 5292, 4763, 1709, 1561, 2097, 2879, 1593, 1314, 2501, 2269, 1031, 872, 1148, 1436, 876, 749, 887, 843, 697, 731, 805, 755, 644, 970, 977, 769, 856, 870, 841, 758, 811, 1018, 952, 965, 1072, 912, 769, 660, 848, 1102, 1114, 1304, 1346, 1000, 931, 715, 944, 972, 904, 1143, 1140, 885, 827, 659, 926, 821, 758, 847, 826, 662, 606, 611, 790, 697, 715, 688, 682, 552, 472, 642, 643, 707, 729, 737, 644, 605, 665, 658, 692, 743, 710, 654, 649, 678, 686, 638, 658, 669, 701, 621, 695, 732, 607, 677, 684, 617, 685, 692, 722, 717, 674, 793, 716, 724, 827, 806, 800, 834, 789, 815, 758, 663, 778, 763, 750, 767, 658, 625, 585, 637, 621, 665, 731, 625, 551, 611, 623, 543, 584, 657, 729, 572, 501, 567, 541, 599, 629, 720, 685, 608, 601, 698, 701, 673, 571, 771, 778, 619, 648, 893, 923, 642, 561, 681, 664, 602, 564, 646, 685, 594, 553, 540, 576, 622, 522, 463, 551, 657, 600, 715, 648, 574, 565, 635, 708, 708, 687, 673, 676, 647, 600, 590, 687, 667, 670, 642, 536, 538, 560, 534, 630, 617, 608, 569, 481, 545, 549, 609, 634, 691, 707, 672, 735, 691, 588, 615, 639, 621, 625, 644, 652, 696, 568, 607, 704, 640, 588, 591, 580, 662, 606, 626, 699, 612, 691, 740, 666, 798, 794, 874, 831, 851, 752, 1022, 1113, 939, 898, 1672, 1717, 1461, 738, 1362, 1709, 1342, 881, 2557, 2881, 1416, 732, 1174, 1535, 1287, 685, 2118, 2490, 644, 722, 848, 875, 718, 677, 815, 786, 917, 779, 1289, 1069, 732, 688, 1181, 1482, 1318, 812, 1568, 1238, 890, 713, 1606, 2180, 1166, 794, 1359, 1138, 871, 663, 1420, 1937, 859, 690, 982, 894, 704, 671, 1201, 1426, 718, 634, 641, 595, 624, 722, 760, 778, 650, 706, 595, 591, 724, 694, 649, 622, 721, 819, 792, 649, 653, 706, 721, 741, 807, 695, 697, 713, 720, 747, 667, 782, 659, 595, 740, 651, 517, 631, 555, 685, 650, 622, 722, 577, 562, 627, 544, 677, 663, 596, 686, 579, 519, 563, 584, 689, 599, 530, 563, 477, 610, 564, 494, 616, 585, 580, 536, 489, 575, 579, 547, 547, 498, 479, 419, 453, 526, 552, 494, 497, 442, 450, 432, 498, 493, 423, 462, 404, 467, 479, 486, 473, 405, 432, 500, 443, 488, 523, 469, 424, 443, 464, 400, 407, 418, 475, 425, 392, 430, 448, 418, 388, 370, 470, 458, 462, 503, 484, 474, 415]"
1.3810800313949585,-0.03039887174963951,-1.1142821311950684,0.5173970460891724,0.04121067747473717,0.8093891143798828,0.006413299590349197,-0.28652656078338623,2.9306888580322266,19.75,0.1931239366531372,1.2938976287841797,15.5,0.2563525438308716,1.270151138305664,19.25,0.3503371477127075,2.6790618896484375,19.75,0.3593493700027466,1.2195110321044922,19.75,"[540, 535, 540, 584, 625, 585, 542, 536, 451, 586, 627, 621, 603, 595, 652, 542, 510, 625, 611, 619, 543, 479, 496, 438, 451, 512, 581, 524, 516, 539, 476, 488, 468, 407, 480, 529, 500, 454, 490, 521, 489, 478, 490, 546, 541, 543, 508, 473, 451, 506, 482, 496, 515, 580, 624, 535, 548, 571, 547, 536, 530, 506, 500, 543, 577, 644, 641, 585, 553, 513, 522, 581, 583, 546, 541, 544, 586, 540, 553, 625, 545, 436, 471, 565, 536, 446, 429, 543, 490, 496, 532, 579, 505, 441, 444, 483, 478, 546, 558, 521, 533, 543, 473, 421, 605, 619, 454, 489, 540, 550, 553, 522, 605, 582, 519, 502, 543, 585, 523, 560, 591, 581, 460, 472, 613, 577, 481, 534, 597, 528, 505, 569, 573, 492, 514, 537, 597, 554, 629, 594, 496, 488, 554, 606, 509, 498, 606, 595, 537, 559, 692, 620, 549, 467, 587, 570, 668, 626, 564, 661, 593, 598, 603, 512, 544, 628, 535, 567, 654, 571, 573, 550, 598, 699, 533, 561, 555, 510, 583, 541, 493, 573, 479, 537, 491, 518, 537, 487, 492, 479, 477, 517, 514, 538, 588, 548, 500, 504, 574, 582, 517, 489, 542, 570, 610, 537, 481, 510, 551, 473, 546, 563, 506, 496, 553, 556, 513, 539, 619, 603, 507, 528, 553, 512, 493, 563, 531, 536, 525, 498, 522, 469, 509, 503, 458, 643, 649, 480, 576, 599, 557, 563, 440, 561, 569, 529, 579, 578, 519, 514, 526, 577, 600, 477, 551, 632, 452, 450, 521, 572, 536, 483, 550, 566, 460, 507, 524, 559, 583, 556, 640, 581, 479, 478, 538, 522, 585, 559, 532, 558, 570, 536, 525, 564, 537, 517, 540, 537, 597, 647, 556, 510, 499, 496, 528, 497, 568, 680, 689, 579, 515, 516, 555, 557, 592, 653, 620, 493, 559, 576, 626, 585, 574, 612, 553, 540, 693, 699, 566, 533, 646, 579, 501, 557, 626, 615, 581, 557, 578, 628, 563, 505, 545, 526, 564, 546, 562, 625, 587, 563, 599, 594, 650, 564, 658, 681, 610, 633, 735, 670, 605, 636, 543, 722, 733, 655, 676, 727, 721, 637, 720, 837, 820, 672, 729, 748, 813, 746, 840, 796, 684, 677, 819, 838, 736, 774, 692, 679, 698, 745, 594, 643, 691, 695, 662, 673, 646, 586, 574, 623, 585, 575, 688, 710, 670, 522, 583, 707, 652, 640, 634, 627, 716, 659, 629, 672, 857, 859, 1705, 894, 1702, 1786, 1359, 1002, 2818, 3182, 3171, 1153, 2718, 3338, 2792, 1256, 5053, 5976, 3445, 988, 2623, 3959, 3341, 1145, 5202, 6268, 2339, 842, 1677, 2817, 2416, 1122, 3233, 3925, 1200, 718, 1004, 1249, 1169, 805, 1402, 1718, 655, 538, 654, 721, 656, 611, 808, 812, 894, 558, 768, 761, 601, 634, 1028, 1240, 1343, 761, 956, 836, 1025, 875, 1498, 1864, 1715, 835, 1444, 1154, 1159, 853, 2398, 2986, 1872, 1227, 2262, 1734, 1269, 901, 2990, 3625, 1886, 1508, 2490, 1430, 1226, 1181, 3750, 4255, 1398, 1277, 1670, 1282, 1292, 1024, 2686, 2947, 896, 1093, 1111, 1090, 1004, 975, 1400, 1334, 766, 837, 744, 703, 657, 683, 774, 739, 665, 762, 723, 600, 558, 570, 694, 700, 591, 681, 699, 633, 628, 587, 652, 667, 650, 737, 836, 745, 619, 674, 707, 676, 684, 673, 787, 794, 675, 653, 784, 788, 613, 591, 597, 654, 673, 577, 732, 757, 580, 580, 580, 546, 658, 686, 658, 628, 686, 816, 829, 590, 622, 717, 663, 694, 950, 1541, 1579, 1017, 806, 984, 827, 883, 1029, 2125, 2281, 1260, 937, 1208, 1056, 1007, 1209, 3119, 3472, 1766, 967, 1502, 1310, 1209, 1026, 2783, 3290, 1835, 812, 1399, 1320, 1224, 698, 1354, 1773, 1177, 626, 778, 826, 950, 928, 908, 1012, 886, 784, 905, 906, 847, 1123, 1080, 841, 759, 653, 1114, 1024, 758, 1215, 1206, 1165, 1014, 882, 1159, 986, 930, 1021, 1078, 1194, 1126, 872, 828, 740, 907, 746, 826, 958, 889, 741, 670, 715, 760, 656, 650, 723, 839, 809, 672, 651, 759, 577, 615, 712, 659, 709, 731, 678, 651, 807, 688, 722, 750, 758, 740, 824, 816, 923, 635, 717, 881, 794, 772, 1001, 1119, 777, 597, 691, 780, 710, 662, 917, 952, 794, 675, 707, 723, 693, 658, 755, 846, 648, 610, 675, 694, 668, 629, 725, 726, 668, 666, 823, 860, 821, 723, 864, 880, 690, 569, 728, 875, 806, 662, 717, 786, 644, 625, 645, 747, 722, 523, 650, 690, 597, 600, 636, 639, 608, 568, 607, 682, 655, 537, 650, 686, 640, 660, 681, 757, 562, 617, 591, 572, 620, 572, 566, 540, 632, 639, 619, 607, 542, 505, 613, 663, 728, 563, 555, 570, 556, 575, 776, 881, 700, 673, 555, 553, 541, 622, 803, 810, 640, 653, 587, 564, 566, 519, 636, 660, 547, 606, 641, 657, 631, 585, 626, 601, 529, 538, 613, 666, 631, 581, 705, 649, 666, 542, 645, 669, 611, 614, 701, 770, 688, 515, 562, 691, 661, 526, 657, 812, 607, 606, 669, 651, 593, 549, 741, 746, 1644, 682, 1270, 1812, 1574, 776, 2520, 2971, 3707, 786, 2450, 4200, 3562, 1036, 5622, 6806, 3668, 830, 2471, 4318, 3656, 1097, 5587, 6750, 2103, 793, 1566, 2431, 2145, 945, 3064, 3747, 1433, 799, 1488, 1403, 1294, 667, 1477, 2178, 1356, 706, 1340, 1178, 1128, 747, 1211, 1874, 917, 644, 875, 855, 793, 791, 995, 1279, 674, 651, 854, 901, 688, 725, 964, 975, 690, 581, 826, 905, 710, 618, 914, 1003, 670, 618, 866, 865, 734, 630, 869, 964, 554, 579, 751, 818, 671, 554, 864, 811, 546, 616, 673, 683, 666, 521, 761, 781, 507, 625, 680, 613, 656, 642, 620, 671, 618, 526, 595, 550, 527, 614, 499, 610, 558, 547, 591, 613, 590, 590, 536, 587, 491, 559, 609, 570, 541, 576, 592, 540, 386, 499, 533, 483, 473, 558, 569, 456, 547, 491, 570, 507, 426, 558, 581, 525, 661, 568, 665, 608, 398, 534, 593, 653, 546, 541, 642, 503, 420, 462, 590, 633, 400, 409, 491, 501, 449, 450, 485, 539, 412, 465, 547, 517, 433, 467, 562, 543, 462, 485, 563, 487, 371, 415, 477, 495, 416, 450, 482, 439, 394, 470, 423, 409]"
1.3375893831253052,0.07944417744874954,-0.368291974067688,0.45273536443710327,0.2808491885662079,1.5812896490097046,0.1044316440820694,-0.4878500699996948,2.0909786224365234,17.25,1.4381905794143677,2.2095680236816406,21.25,1.4862557649612427,2.199125289916992,16.75,1.6308804750442505,1.9846916198730469,19.25,1.6559144258499146,1.9743919372558594,22.25,"[613, 675, 687, 672, 791, 669, 685, 678, 602, 617, 593, 688, 688, 583, 625, 606, 521, 568, 536, 568, 559, 552, 547, 548, 475, 522, 578, 562, 569, 496, 482, 514, 440, 449, 399, 454, 454, 423, 400, 423, 460, 458, 479, 523, 571, 538, 502, 532, 527, 494, 490, 474, 568, 583, 516, 551, 577, 503, 542, 494, 528, 515, 524, 572, 566, 552, 459, 446, 467, 472, 452, 518, 494, 557, 537, 489, 488, 490, 452, 492, 504, 514, 535, 577, 553, 552, 508, 484, 507, 477, 470, 511, 490, 573, 603, 550, 499, 591, 555, 521, 500, 566, 606, 515, 537, 629, 591, 573, 559, 553, 574, 543, 597, 561, 571, 570, 552, 530, 564, 548, 601, 537, 488, 543, 555, 520, 566, 537, 511, 499, 541, 495, 485, 553, 594, 555, 497, 619, 610, 509, 503, 600, 583, 475, 559, 609, 516, 479, 439, 519, 522, 490, 559, 484, 492, 492, 485, 472, 471, 548, 475, 488, 527, 485, 470, 478, 502, 509, 528, 535, 529, 545, 514, 529, 634, 540, 519, 541, 588, 561, 538, 595, 615, 592, 526, 511, 516, 519, 453, 526, 592, 576, 596, 604, 539, 496, 602, 617, 550, 504, 599, 648, 551, 493, 610, 543, 473, 537, 559, 507, 500, 597, 553, 439, 533, 585, 543, 529, 471, 515, 542, 500, 512, 527, 558, 519, 479, 564, 553, 459, 472, 504, 484, 495, 459, 445, 453, 524, 533, 494, 516, 522, 456, 467, 542, 584, 536, 488, 523, 516, 570, 563, 596, 641, 552, 482, 608, 527, 565, 592, 572, 549, 474, 572, 610, 520, 508, 585, 638, 567, 488, 566, 578, 552, 478, 491, 543, 557, 540, 486, 599, 552, 443, 551, 516, 529, 554, 530, 645, 696, 558, 565, 613, 581, 622, 580, 635, 599, 624, 635, 572, 538, 654, 669, 628, 497, 496, 593, 613, 537, 515, 643, 701, 743, 619, 574, 644, 602, 592, 617, 666, 766, 679, 628, 664, 622, 731, 659, 586, 625, 601, 609, 646, 647, 655, 625, 710, 675, 619, 604, 635, 645, 556, 608, 729, 691, 613, 612, 616, 674, 570, 580, 608, 747, 670, 611, 581, 615, 620, 549, 554, 654, 655, 623, 595, 644, 660, 567, 586, 645, 607, 586, 602, 636, 622, 599, 705, 739, 723, 768, 674, 637, 709, 709, 736, 721, 681, 630, 646, 685, 729, 742, 741, 619, 546, 639, 646, 601, 663, 743, 703, 587, 574, 708, 723, 646, 568, 592, 594, 607, 701, 669, 573, 560, 562, 525, 543, 651, 694, 638, 532, 565, 715, 589, 1598, 954, 1364, 1209, 1254, 813, 1831, 2268, 3088, 1045, 2647, 2447, 2215, 850, 3483, 4774, 2917, 822, 2388, 2586, 2025, 968, 3244, 4402, 1221, 940, 1283, 1486, 1067, 1247, 2118, 2104, 1106, 941, 1141, 1100, 1011, 1088, 1731, 1757, 1118, 817, 1111, 1038, 874, 930, 1710, 1829, 1377, 999, 1562, 1794, 1177, 1228, 3085, 3117, 3315, 1195, 2797, 4063, 2969, 1790, 6151, 6821, 3355, 1924, 3815, 4844, 3055, 1839, 5486, 6126, 1428, 2545, 3728, 3005, 1290, 1723, 3018, 2587, 548, 1717, 2125, 1280, 580, 1093, 2119, 1870, 639, 836, 890, 736, 584, 605, 789, 781, 762, 739, 904, 834, 641, 696, 958, 1044, 941, 939, 904, 920, 844, 936, 1097, 1048, 1087, 810, 696, 795, 952, 918, 851, 1015, 812, 571, 640, 773, 788, 653, 815, 960, 650, 548, 577, 666, 612, 639, 757, 713, 798, 773, 730, 668, 705, 689, 706, 733, 946, 1380, 1340, 918, 846, 971, 1063, 933, 1033, 1824, 1818, 1093, 940, 1125, 1045, 953, 1263, 2673, 2862, 1466, 1197, 1798, 1466, 1072, 1435, 3152, 3403, 1749, 1391, 2354, 2009, 1195, 924, 2003, 2208, 1219, 847, 1695, 1557, 942, 795, 1301, 1492, 1188, 832, 1103, 1296, 1070, 906, 1317, 1689, 1616, 1119, 1109, 1416, 1163, 983, 1227, 1441, 1330, 864, 1091, 1317, 1049, 901, 926, 1088, 1107, 909, 893, 1140, 1091, 1180, 841, 1012, 1326, 1216, 1035, 1119, 1284, 1310, 1043, 1184, 1487, 1367, 1215, 1343, 1430, 1159, 1068, 1363, 1473, 1107, 1181, 1484, 1386, 1122, 1014, 1137, 1209, 957, 1026, 1189, 1122, 867, 803, 927, 913, 800, 909, 887, 922, 907, 784, 993, 1106, 845, 962, 1132, 930, 1071, 862, 855, 1111, 953, 957, 1059, 1049, 943, 805, 782, 799, 793, 937, 1002, 973, 673, 596, 762, 763, 602, 742, 866, 780, 621, 593, 687, 695, 634, 555, 677, 707, 648, 711, 768, 714, 683, 778, 776, 710, 616, 680, 791, 934, 765, 693, 830, 717, 727, 641, 743, 749, 693, 725, 756, 726, 914, 671, 655, 790, 895, 749, 810, 978, 1280, 850, 835, 1110, 1209, 886, 1053, 1407, 1159, 824, 889, 1059, 974, 815, 1030, 1254, 780, 722, 679, 639, 727, 685, 821, 843, 835, 715, 631, 543, 657, 712, 632, 750, 849, 776, 710, 678, 610, 803, 756, 700, 764, 704, 814, 923, 741, 706, 938, 874, 689, 667, 834, 1003, 773, 653, 925, 905, 638, 613, 781, 853, 686, 600, 639, 640, 799, 707, 678, 728, 635, 621, 648, 664, 901, 641, 765, 808, 812, 712, 840, 1011, 1245, 687, 1181, 1347, 962, 934, 2011, 2245, 2981, 1643, 3187, 4175, 2699, 2245, 6386, 6621, 4848, 2237, 5194, 6706, 4403, 3070, 9875, 10549, 5007, 2073, 5272, 6644, 4515, 2786, 9688, 10621, 3644, 1624, 3808, 4472, 3125, 2040, 6636, 7421, 1748, 1011, 1721, 1764, 1316, 1192, 2595, 2991, 1207, 942, 1388, 1361, 855, 896, 1504, 1657, 1162, 913, 1381, 1375, 916, 1042, 1575, 1691, 1272, 848, 1170, 1558, 1384, 836, 1367, 1703, 1778, 998, 1327, 1935, 1857, 829, 2089, 2684, 1485, 952, 1317, 1648, 1422, 837, 1577, 2065, 1222, 1152, 1354, 1236, 1098, 1102, 1600, 1744, 1031, 1080, 1065, 922, 948, 1092, 1536, 1470, 796, 842, 828, 688, 750, 808, 1106, 1092, 677, 653, 730, 631, 695, 638, 829, 915, 697, 522, 733, 724, 584, 690, 778, 808, 626, 546, 666, 699, 527, 650, 707, 725, 678, 563, 739, 686, 616, 720, 745, 835, 664, 561, 797, 668, 625, 728, 760, 864, 554, 564, 704, 625, 644, 708, 750, 776, 486, 497, 587, 532, 485, 602, 657, 588, 504, 526, 490, 505, 484, 511, 529, 508, 541, 571, 571, 508, 456, 431, 480, 533, 494, 485, 459, 470, 457, 436, 443, 450]"
1.3526279926300049,0.09136082977056503,0.10755704343318939,0.44598519802093506,0.32848143577575684,1.9795911312103271,0.1520494520664215,-0.4305681586265564,1.5624046325683594,15.5,-0.3272852301597595,1.5216350555419922,21.75,0.824991762638092,0.5830764770507812,20.75,0.8969464898109436,0.3258705139160156,28.0,0.9274163842201233,0.0,28.0,"[596, 637, 617, 561, 638, 562, 613, 633, 590, 546, 583, 662, 695, 674, 675, 710, 586, 592, 587, 611, 630, 626, 586, 567, 510, 434, 461, 494, 474, 432, 446, 527, 516, 466, 555, 533, 495, 431, 472, 632, 611, 533, 571, 573, 544, 545, 538, 612, 538, 536, 530, 566, 512, 636, 701, 590, 583, 533, 507, 524, 541, 609, 629, 555, 453, 521, 591, 505, 482, 503, 537, 481, 446, 499, 605, 561, 545, 540, 473, 446, 459, 482, 538, 487, 483, 581, 476, 372, 560, 589, 544, 547, 567, 617, 535, 475, 540, 537, 520, 495, 471, 507, 495, 468, 612, 645, 673, 551, 517, 592, 646, 629, 537, 513, 570, 585, 554, 567, 631, 663, 499, 552, 571, 570, 491, 528, 582, 530, 426, 460, 522, 533, 517, 483, 614, 582, 533, 552, 566, 550, 584, 570, 630, 568, 575, 559, 578, 628, 609, 568, 566, 613, 533, 512, 606, 631, 513, 533, 598, 627, 491, 623, 673, 652, 543, 564, 666, 591, 564, 657, 678, 698, 607, 580, 621, 545, 531, 491, 540, 588, 521, 508, 522, 526, 556, 441, 543, 569, 542, 486, 580, 624, 567, 529, 528, 554, 579, 533, 539, 575, 627, 520, 478, 507, 523, 539, 554, 606, 564, 562, 599, 594, 531, 561, 557, 536, 632, 560, 517, 604, 586, 597, 526, 554, 555, 499, 608, 583, 557, 526, 474, 547, 535, 535, 556, 555, 556, 551, 487, 544, 511, 483, 561, 577, 471, 530, 591, 559, 630, 589, 613, 560, 560, 660, 651, 593, 613, 593, 544, 596, 631, 595, 542, 579, 684, 622, 519, 584, 643, 575, 570, 630, 547, 570, 548, 552, 568, 533, 530, 547, 480, 537, 526, 522, 482, 477, 491, 492, 534, 498, 492, 538, 527, 540, 472, 553, 610, 533, 485, 563, 596, 576, 483, 536, 497, 531, 517, 514, 547, 509, 529, 528, 496, 575, 632, 578, 564, 675, 596, 510, 650, 658, 735, 648, 649, 660, 548, 615, 663, 676, 637, 615, 591, 634, 628, 596, 582, 634, 546, 522, 611, 650, 613, 555, 634, 593, 541, 661, 620, 594, 603, 607, 657, 558, 535, 683, 610, 612, 550, 549, 642, 563, 564, 640, 673, 666, 542, 616, 588, 615, 575, 658, 674, 597, 580, 548, 603, 605, 563, 572, 641, 656, 676, 667, 635, 617, 617, 623, 617, 562, 656, 709, 609, 635, 569, 535, 581, 594, 580, 605, 553, 601, 634, 547, 530, 570, 625, 583, 496, 608, 581, 489, 536, 637, 620, 496, 610, 656, 582, 557, 592, 629, 651, 608, 634, 595, 519, 610, 597, 516, 545, 576, 789, 791, 851, 768, 666, 693, 1094, 1089, 3136, 2430, 3865, 2574, 1897, 2293, 6039, 6571, 7118, 4564, 8751, 5624, 3873, 4473, 13508, 15152, 7133, 4055, 8567, 5785, 3785, 4049, 13104, 14979, 3497, 2143, 4385, 3251, 1990, 2192, 6460, 7289, 2057, 1324, 2457, 2039, 1418, 1316, 3458, 3964, 2847, 1448, 3316, 3461, 2214, 1388, 4631, 5347, 3606, 1382, 3728, 4578, 3138, 1039, 4825, 5991, 2431, 1320, 2654, 3097, 2129, 897, 2859, 3644, 1040, 1013, 1394, 1347, 969, 678, 1359, 1512, 596, 764, 884, 792, 625, 715, 915, 810, 592, 723, 737, 650, 583, 663, 739, 648, 699, 773, 817, 735, 639, 631, 741, 823, 801, 1002, 1088, 837, 784, 766, 1019, 1109, 746, 918, 954, 773, 712, 695, 988, 1008, 726, 693, 681, 736, 709, 650, 812, 907, 1113, 1805, 1640, 870, 994, 1204, 1179, 848, 1870, 3812, 3478, 1276, 1331, 1972, 2218, 1221, 1716, 3987, 3809, 1453, 1291, 1924, 2230, 1366, 1332, 3507, 3574, 1486, 1188, 1757, 1784, 1294, 1347, 3380, 3573, 1529, 1282, 1729, 1516, 1421, 1442, 2812, 2804, 1195, 1197, 1521, 1465, 1248, 1592, 2852, 2552, 982, 1127, 1348, 1585, 1067, 1610, 2810, 2428, 1023, 1101, 1244, 1521, 1033, 971, 1693, 1504, 749, 719, 840, 1035, 816, 734, 904, 895, 753, 631, 623, 696, 733, 780, 866, 919, 831, 732, 676, 823, 828, 730, 749, 809, 789, 723, 702, 785, 746, 707, 544, 655, 759, 691, 663, 729, 756, 694, 637, 812, 808, 709, 674, 877, 901, 763, 566, 695, 794, 807, 720, 687, 859, 816, 688, 662, 857, 948, 897, 718, 819, 797, 655, 781, 766, 799, 857, 882, 844, 716, 577, 683, 692, 665, 710, 843, 876, 695, 649, 633, 574, 612, 618, 779, 764, 688, 755, 777, 687, 590, 645, 845, 797, 683, 714, 855, 741, 671, 708, 887, 894, 611, 749, 733, 708, 677, 747, 876, 757, 553, 554, 574, 677, 694, 638, 551, 552, 528, 476, 604, 687, 628, 573, 572, 562, 494, 566, 650, 629, 521, 596, 670, 650, 545, 587, 617, 603, 509, 507, 608, 679, 600, 515, 573, 550, 585, 583, 500, 643, 663, 578, 629, 603, 657, 688, 709, 832, 709, 591, 654, 635, 621, 597, 738, 880, 629, 593, 589, 667, 691, 637, 658, 703, 640, 601, 661, 675, 574, 661, 649, 627, 561, 532, 629, 689, 608, 551, 516, 541, 552, 538, 651, 667, 576, 572, 573, 585, 533, 547, 674, 628, 583, 536, 685, 682, 561, 602, 638, 628, 641, 632, 578, 613, 632, 636, 591, 647, 712, 662, 637, 681, 678, 639, 625, 679, 775, 653, 889, 930, 892, 754, 885, 813, 834, 680, 1412, 1584, 1532, 911, 1576, 1301, 1018, 947, 2655, 2999, 1504, 945, 1596, 1330, 1037, 956, 2600, 2969, 817, 1167, 1253, 957, 802, 1126, 1965, 1755, 763, 925, 1142, 1039, 955, 1043, 1503, 1383, 731, 723, 855, 867, 832, 828, 1176, 1174, 625, 639, 799, 827, 623, 701, 1067, 1026, 590, 709, 863, 821, 561, 696, 1025, 912, 673, 802, 931, 805, 680, 837, 1262, 1188, 788, 858, 1093, 898, 644, 731, 1236, 1234, 674, 631, 858, 796, 627, 556, 921, 1020, 607, 593, 621, 617, 518, 656, 764, 738, 625, 563, 619, 590, 601, 694, 693, 696, 541, 572, 511, 529, 535, 520, 570, 559, 622, 549, 622, 712, 585, 537, 620, 680, 610, 659, 650, 649, 589, 561, 581, 619, 613, 673, 624, 597, 589, 517, 452, 529, 493, 517, 551, 560, 480, 471, 509, 483, 435, 463, 505, 496, 424, 456, 517, 481, 387, 398, 389, 414, 375, 414, 488, 397, 387, 404, 386, 439, 401, 374, 402, 380]"
1.1447950601577759,-0.12859825789928436,1.5366406440734863,-0.18927636742591858,-0.18606865406036377,2.8108372688293457,-0.605005145072937,0.057366371154785156,0.9906291961669922,30.0,0.10385799407958984,0.9211063385009766,24.75,0.20156192779541016,0.7960796356201172,27.75,0.26221561431884766,0.6719112396240234,20.0,0.8899240493774414,-0.8149623870849609,20.0,"[657, 640, 559, 529, 651, 527, 557, 633, 548, 532, 500, 586, 707, 580, 608, 620, 527, 459, 543, 582, 559, 578, 624, 633, 541, 441, 469, 502, 490, 451, 517, 617, 497, 476, 466, 481, 491, 559, 555, 524, 489, 503, 513, 498, 452, 497, 519, 466, 578, 554, 559, 518, 500, 631, 635, 552, 570, 512, 559, 598, 548, 562, 588, 577, 546, 585, 569, 585, 552, 532, 493, 521, 519, 573, 574, 539, 584, 532, 533, 556, 535, 585, 606, 519, 553, 614, 587, 506, 460, 546, 540, 464, 448, 600, 649, 559, 479, 527, 547, 546, 570, 660, 697, 523, 564, 597, 606, 615, 646, 715, 566, 504, 620, 643, 547, 547, 634, 609, 568, 621, 588, 586, 620, 600, 643, 635, 599, 595, 548, 504, 525, 517, 549, 608, 560, 545, 573, 540, 551, 545, 576, 676, 614, 552, 588, 613, 569, 515, 558, 612, 565, 437, 591, 614, 552, 515, 571, 596, 492, 469, 537, 559, 526, 505, 533, 563, 470, 497, 526, 583, 551, 521, 528, 612, 616, 533, 538, 695, 644, 506, 589, 643, 556, 434, 668, 663, 558, 538, 656, 660, 493, 538, 675, 655, 593, 543, 604, 569, 530, 572, 600, 553, 572, 571, 614, 581, 569, 545, 596, 592, 602, 565, 612, 653, 607, 525, 561, 601, 606, 653, 678, 660, 594, 557, 507, 510, 454, 541, 605, 511, 453, 464, 592, 643, 519, 495, 577, 485, 437, 544, 470, 611, 601, 520, 470, 479, 486, 463, 551, 574, 451, 481, 520, 417, 512, 544, 460, 495, 444, 436, 488, 441, 502, 489, 466, 494, 537, 497, 452, 495, 570, 562, 521, 485, 599, 578, 570, 546, 534, 587, 592, 534, 574, 580, 563, 507, 492, 579, 603, 559, 559, 552, 547, 546, 522, 550, 579, 585, 616, 636, 636, 564, 589, 631, 509, 531, 559, 656, 638, 497, 577, 578, 641, 665, 596, 723, 700, 617, 615, 614, 557, 642, 625, 624, 598, 564, 544, 516, 672, 773, 588, 559, 571, 540, 560, 537, 817, 1028, 809, 539, 669, 754, 667, 546, 892, 925, 746, 747, 798, 726, 551, 568, 608, 671, 693, 753, 666, 643, 513, 521, 599, 549, 662, 751, 609, 667, 663, 572, 499, 452, 592, 691, 626, 639, 625, 544, 555, 522, 660, 706, 679, 627, 614, 581, 482, 612, 594, 528, 602, 626, 557, 478, 618, 695, 707, 571, 607, 620, 602, 608, 690, 628, 608, 668, 662, 671, 589, 570, 641, 619, 521, 528, 614, 670, 566, 580, 608, 625, 527, 477, 570, 606, 571, 531, 622, 658, 531, 555, 607, 607, 556, 517, 704, 678, 552, 508, 465, 597, 596, 611, 1168, 913, 1214, 981, 841, 841, 1553, 1822, 4789, 2883, 5691, 4466, 3162, 3040, 8593, 9680, 8501, 4825, 10048, 7928, 5641, 5069, 15600, 17591, 6483, 3510, 7376, 6006, 4435, 3744, 11802, 13362, 2914, 1368, 2986, 2584, 2014, 1541, 4727, 5535, 1533, 971, 1808, 1486, 1004, 1015, 2542, 2913, 1584, 1169, 1999, 1559, 1163, 1072, 3044, 3358, 2176, 1336, 2433, 2506, 2037, 1148, 4224, 4747, 2052, 930, 2217, 2747, 2025, 1034, 3615, 4102, 1027, 711, 1312, 1595, 1122, 772, 1621, 1740, 761, 633, 622, 742, 789, 626, 931, 1012, 755, 644, 647, 627, 663, 577, 816, 941, 712, 637, 747, 664, 541, 689, 804, 845, 858, 868, 1251, 1382, 793, 955, 1714, 1557, 1373, 943, 1365, 1788, 1384, 1130, 2174, 2285, 1266, 684, 963, 1296, 1145, 730, 1583, 1913, 807, 563, 703, 843, 775, 637, 1094, 1202, 830, 658, 702, 784, 719, 688, 1004, 1095, 1316, 968, 817, 768, 801, 882, 852, 1201, 1608, 1563, 1706, 1453, 819, 1559, 1495, 1402, 1082, 2265, 3554, 2676, 933, 1456, 2331, 2426, 1782, 5032, 6467, 4127, 1643, 2394, 4123, 4011, 3225, 7449, 7723, 3789, 2101, 3793, 5895, 4662, 4369, 9432, 8791, 3673, 1928, 5211, 8082, 5622, 3429, 7016, 6665, 3037, 1380, 3759, 5940, 4298, 1623, 2679, 2768, 1686, 1040, 1580, 2232, 2003, 955, 1671, 1767, 1426, 1044, 1051, 1295, 1260, 723, 1066, 1104, 1005, 853, 779, 869, 848, 742, 573, 714, 859, 708, 587, 678, 745, 714, 603, 566, 703, 713, 588, 487, 645, 723, 737, 657, 757, 801, 702, 632, 703, 675, 755, 810, 714, 699, 654, 696, 690, 689, 784, 773, 629, 601, 595, 667, 637, 607, 736, 787, 591, 575, 566, 742, 731, 653, 668, 809, 779, 636, 712, 877, 870, 704, 630, 749, 831, 717, 784, 895, 864, 765, 644, 737, 865, 751, 631, 818, 878, 778, 758, 611, 611, 663, 685, 678, 655, 758, 670, 526, 505, 706, 722, 591, 642, 605, 658, 642, 642, 624, 560, 693, 663, 660, 685, 722, 691, 674, 655, 773, 718, 642, 647, 566, 544, 585, 607, 592, 587, 596, 549, 575, 601, 553, 526, 652, 647, 648, 548, 589, 599, 648, 651, 687, 683, 678, 595, 638, 692, 669, 634, 646, 666, 540, 609, 576, 534, 588, 526, 546, 556, 508, 615, 572, 552, 628, 517, 536, 519, 706, 644, 592, 600, 668, 592, 609, 699, 570, 572, 661, 589, 603, 591, 619, 698, 477, 522, 692, 668, 542, 631, 706, 666, 646, 600, 819, 844, 591, 649, 1075, 1068, 846, 784, 897, 856, 670, 672, 1116, 1189, 733, 751, 663, 601, 628, 653, 727, 736, 696, 675, 784, 890, 790, 609, 759, 871, 714, 615, 953, 1008, 814, 688, 863, 955, 720, 691, 1079, 1055, 708, 725, 1261, 1263, 805, 920, 1192, 1039, 695, 905, 1608, 1499, 741, 1001, 1096, 911, 673, 811, 1411, 1235, 532, 797, 908, 756, 543, 695, 954, 805, 583, 641, 745, 648, 490, 633, 671, 621, 766, 600, 688, 660, 625, 678, 692, 841, 706, 566, 712, 741, 607, 642, 972, 999, 662, 621, 705, 780, 587, 593, 911, 934, 620, 557, 651, 755, 702, 529, 585, 648, 605, 575, 572, 628, 574, 546, 685, 683, 538, 523, 527, 538, 595, 582, 636, 647, 590, 540, 525, 479, 476, 646, 575, 518, 495, 505, 495, 472, 533, 594, 542, 531, 428, 485, 552, 477, 454, 546, 526, 522, 405, 477, 533, 436, 362, 427, 473, 477, 472, 539, 507, 443, 395, 451, 586, 545, 470, 483, 459, 476, 463, 457, 489, 473, 412, 339, 333, 472, 474, 377, 372, 435]"
1.0844026803970337,-0.2593892216682434,1.6470928192138672,-0.35638874769210815,-0.3649440407752991,2.570085048675537,-0.7740997076034546,-0.11780405044555664,1.0705947875976562,28.25,-0.08819246292114258,1.068735122680664,25.0,0.11150693893432617,-1.6026020050048828,15.75,0.17087316513061523,0.6710529327392578,23.5,0.5715594291687012,-1.2738704681396484,15.75,"[525, 532, 580, 593, 620, 599, 579, 532, 465, 481, 539, 549, 533, 527, 616, 591, 452, 450, 512, 537, 557, 560, 643, 623, 502, 475, 541, 572, 540, 482, 529, 554, 484, 416, 437, 585, 548, 425, 453, 506, 552, 478, 472, 630, 591, 493, 465, 550, 504, 462, 466, 539, 546, 487, 484, 507, 539, 646, 546, 594, 581, 523, 526, 504, 476, 532, 571, 577, 521, 501, 529, 519, 532, 584, 583, 563, 523, 487, 523, 545, 588, 563, 561, 540, 550, 565, 585, 531, 560, 575, 511, 484, 587, 578, 582, 580, 520, 503, 555, 524, 524, 518, 552, 592, 581, 522, 497, 478, 559, 514, 465, 610, 621, 541, 520, 531, 586, 578, 506, 578, 616, 571, 528, 483, 576, 606, 522, 567, 486, 483, 391, 418, 497, 493, 422, 468, 560, 522, 477, 574, 570, 534, 588, 586, 569, 614, 563, 622, 640, 663, 635, 543, 620, 647, 617, 537, 531, 612, 617, 616, 548, 524, 496, 416, 490, 528, 517, 531, 580, 508, 433, 469, 526, 558, 464, 571, 549, 476, 462, 518, 542, 545, 537, 605, 529, 595, 582, 487, 525, 600, 608, 479, 575, 698, 634, 441, 525, 675, 701, 575, 505, 600, 534, 525, 563, 645, 697, 561, 505, 524, 513, 584, 588, 575, 726, 662, 506, 602, 605, 534, 527, 595, 646, 543, 493, 585, 610, 564, 517, 601, 593, 476, 514, 604, 656, 593, 530, 546, 523, 524, 484, 534, 597, 623, 561, 541, 582, 561, 477, 435, 464, 564, 503, 507, 558, 548, 542, 501, 498, 537, 568, 493, 560, 592, 606, 548, 585, 648, 638, 597, 580, 662, 575, 600, 596, 594, 563, 590, 588, 564, 666, 497, 483, 592, 559, 544, 585, 627, 628, 583, 540, 493, 570, 621, 597, 608, 580, 579, 585, 583, 617, 590, 598, 594, 578, 610, 552, 548, 633, 642, 528, 523, 616, 630, 721, 750, 657, 590, 573, 671, 557, 597, 695, 772, 762, 632, 614, 648, 590, 626, 564, 613, 727, 653, 649, 670, 708, 706, 516, 592, 712, 666, 655, 571, 682, 639, 570, 576, 585, 655, 609, 582, 576, 635, 581, 490, 539, 554, 514, 513, 626, 607, 559, 592, 562, 626, 580, 550, 581, 551, 534, 534, 546, 656, 639, 553, 605, 556, 681, 663, 607, 673, 783, 704, 830, 811, 769, 634, 529, 613, 746, 832, 935, 986, 802, 612, 577, 726, 775, 772, 740, 762, 670, 527, 588, 663, 818, 832, 658, 680, 635, 577, 618, 596, 555, 629, 610, 551, 504, 492, 553, 529, 470, 544, 599, 638, 536, 610, 664, 541, 611, 616, 545, 643, 632, 602, 558, 547, 635, 591, 553, 586, 705, 640, 627, 701, 694, 653, 1235, 1056, 1601, 1794, 1234, 1261, 2688, 2652, 5982, 2865, 6051, 6040, 4392, 3493, 10819, 12121, 9122, 3762, 9149, 8531, 6388, 4439, 15365, 17837, 5143, 2369, 5659, 5158, 3656, 2650, 8866, 10234, 1024, 951, 1577, 1401, 900, 1033, 2019, 2035, 1146, 1003, 1510, 1126, 802, 1136, 2198, 2219, 1655, 1380, 2027, 1764, 1215, 1445, 3432, 3594, 1667, 1039, 1673, 1762, 1490, 1134, 3043, 3378, 1307, 786, 1186, 1373, 1289, 763, 2078, 2467, 937, 734, 999, 1062, 881, 778, 1219, 1449, 696, 585, 781, 769, 750, 697, 747, 936, 947, 543, 907, 1013, 926, 707, 1008, 1304, 1818, 821, 1768, 2305, 1804, 1018, 3262, 3657, 2273, 1096, 2058, 3117, 2408, 1266, 4646, 5032, 1497, 876, 1433, 2109, 1607, 981, 3038, 3217, 783, 635, 842, 1053, 848, 583, 1129, 1169, 501, 504, 707, 698, 613, 595, 659, 674, 533, 609, 702, 619, 602, 693, 816, 776, 683, 753, 892, 982, 837, 714, 871, 748, 645, 1007, 1399, 1177, 740, 854, 1077, 988, 1475, 3203, 3117, 1508, 982, 1767, 2261, 1341, 2379, 4090, 3751, 1622, 1345, 2438, 2926, 1987, 1555, 3604, 3835, 1775, 1088, 1948, 3264, 2816, 1881, 4048, 3921, 1852, 871, 2211, 3490, 2524, 1475, 2223, 2074, 1325, 788, 1378, 1868, 1525, 868, 1182, 1136, 811, 723, 915, 1098, 923, 751, 729, 676, 808, 632, 707, 741, 619, 840, 627, 735, 810, 774, 816, 769, 747, 734, 625, 724, 762, 776, 727, 751, 854, 649, 606, 586, 578, 678, 773, 699, 656, 625, 607, 632, 614, 731, 737, 621, 593, 605, 609, 606, 529, 646, 677, 625, 661, 673, 739, 688, 671, 668, 599, 715, 745, 756, 771, 730, 740, 626, 609, 786, 751, 683, 660, 675, 678, 640, 563, 621, 654, 627, 606, 678, 793, 763, 630, 679, 815, 678, 607, 593, 721, 814, 695, 686, 821, 739, 706, 624, 688, 793, 760, 927, 967, 680, 563, 532, 639, 722, 621, 810, 867, 694, 529, 637, 689, 698, 644, 789, 891, 611, 507, 597, 707, 659, 602, 717, 736, 561, 625, 700, 689, 635, 680, 750, 703, 576, 630, 742, 676, 601, 608, 719, 769, 657, 675, 653, 617, 677, 603, 670, 691, 678, 669, 544, 640, 714, 640, 587, 597, 700, 679, 579, 622, 684, 688, 562, 605, 715, 626, 680, 691, 699, 712, 580, 673, 553, 578, 691, 617, 622, 668, 680, 645, 637, 530, 632, 751, 721, 530, 792, 843, 872, 724, 849, 892, 858, 720, 1125, 1233, 869, 761, 771, 853, 814, 843, 845, 825, 710, 798, 910, 1239, 906, 1049, 1774, 1447, 745, 770, 915, 1250, 855, 1056, 2085, 1849, 985, 990, 1177, 978, 796, 1042, 1948, 1912, 708, 783, 986, 749, 561, 831, 1213, 1184, 741, 651, 871, 840, 720, 652, 925, 974, 819, 819, 1065, 931, 821, 673, 1294, 1386, 771, 688, 824, 909, 774, 774, 1211, 1251, 849, 862, 1023, 1053, 823, 796, 1468, 1439, 971, 1421, 1995, 1479, 944, 963, 2502, 2509, 989, 1594, 2207, 1488, 709, 1166, 2657, 2636, 800, 1001, 1373, 1019, 547, 798, 1561, 1624, 636, 641, 747, 567, 536, 600, 682, 744, 624, 527, 551, 601, 522, 491, 612, 657, 503, 424, 523, 553, 528, 464, 506, 532, 527, 494, 566, 586, 558, 508, 477, 510, 536, 538, 545, 585, 509, 524, 553, 506, 454, 543, 559, 502, 456, 511, 660, 645, 435, 528, 584, 562, 535, 563, 680, 627, 515, 548, 597, 503, 521, 614, 699, 601, 448, 475, 483, 412, 433, 484, 446, 405, 431, 441, 440, 436, 395, 371, 452, 428]"
0.9909242391586304,-0.31028032302856445,1.7769114971160889,-0.5590031147003174,-0.41913166642189026,2.382103443145752,-0.939052164554596,-0.10191571712493896,1.0293960571289062,19.25,0.05801546573638916,0.7495880126953125,22.25,0.05844461917877197,0.8136749267578125,19.5,0.31851160526275635,-1.2349605560302734,19.25,0.34025537967681885,-1.2206554412841797,15.75,"[649, 553, 478, 591, 659, 589, 477, 549, 579, 603, 621, 664, 723, 657, 617, 662, 506, 590, 581, 546, 629, 709, 607, 533, 555, 650, 565, 465, 539, 587, 611, 549, 558, 555, 508, 478, 509, 512, 532, 536, 585, 498, 503, 600, 571, 427, 474, 572, 539, 452, 458, 578, 549, 535, 525, 572, 542, 444, 522, 619, 567, 495, 561, 570, 492, 427, 553, 600, 575, 513, 582, 581, 488, 478, 561, 544, 589, 562, 619, 603, 492, 521, 514, 538, 509, 429, 578, 585, 520, 510, 520, 484, 505, 492, 519, 539, 560, 495, 508, 483, 547, 506, 452, 570, 537, 514, 491, 538, 606, 538, 529, 556, 466, 527, 560, 491, 497, 541, 477, 360, 558, 573, 646, 574, 473, 586, 586, 547, 504, 474, 550, 533, 574, 680, 593, 521, 464, 475, 495, 587, 611, 587, 532, 487, 488, 541, 549, 590, 636, 556, 524, 537, 480, 485, 599, 542, 531, 514, 473, 494, 401, 554, 650, 497, 498, 547, 544, 526, 533, 618, 645, 540, 591, 606, 606, 567, 544, 486, 484, 475, 508, 586, 550, 498, 530, 492, 492, 487, 561, 598, 547, 542, 555, 572, 475, 474, 551, 516, 557, 566, 565, 659, 510, 427, 527, 582, 557, 508, 584, 506, 587, 579, 629, 635, 569, 584, 555, 529, 564, 651, 670, 583, 577, 613, 517, 463, 569, 617, 585, 592, 638, 621, 591, 553, 583, 555, 508, 567, 604, 533, 556, 525, 617, 594, 551, 509, 546, 569, 620, 525, 586, 575, 563, 581, 627, 656, 520, 489, 455, 561, 600, 534, 571, 612, 518, 499, 549, 579, 569, 560, 606, 564, 498, 513, 605, 556, 608, 609, 514, 489, 649, 614, 592, 586, 609, 583, 501, 561, 600, 626, 585, 529, 465, 490, 465, 543, 561, 662, 671, 505, 501, 599, 641, 608, 553, 628, 675, 551, 569, 585, 553, 574, 611, 620, 656, 605, 601, 588, 522, 579, 485, 550, 594, 532, 479, 538, 577, 500, 639, 630, 565, 543, 519, 481, 495, 529, 699, 728, 640, 581, 615, 613, 567, 602, 695, 738, 679, 646, 677, 684, 557, 622, 619, 630, 576, 546, 557, 611, 628, 580, 695, 740, 620, 534, 614, 648, 610, 566, 678, 793, 681, 552, 645, 690, 677, 597, 628, 706, 646, 629, 661, 619, 637, 576, 638, 710, 563, 628, 774, 698, 584, 513, 691, 688, 671, 663, 627, 674, 657, 739, 631, 685, 698, 608, 572, 584, 658, 683, 528, 660, 638, 481, 586, 605, 580, 606, 578, 537, 526, 504, 675, 620, 535, 600, 717, 646, 533, 582, 680, 686, 666, 714, 675, 629, 612, 602, 659, 623, 626, 650, 611, 595, 636, 590, 535, 617, 607, 498, 538, 619, 615, 568, 556, 652, 638, 505, 1066, 1214, 1384, 1069, 932, 1166, 2057, 1949, 2926, 2594, 3595, 2583, 1955, 2523, 5708, 5946, 4041, 3147, 5091, 3463, 2412, 2914, 7535, 8324, 2529, 2229, 3825, 2672, 1626, 1944, 5207, 5700, 976, 1527, 2009, 1569, 916, 1411, 2843, 2605, 1176, 1661, 1714, 1192, 871, 1642, 2915, 2545, 1132, 1477, 1632, 986, 751, 1620, 2946, 2654, 913, 1138, 1418, 910, 675, 1282, 2273, 2148, 605, 1005, 1177, 791, 633, 918, 1501, 1352, 672, 963, 1076, 905, 684, 741, 1227, 1193, 548, 723, 879, 772, 597, 675, 996, 876, 535, 541, 601, 659, 601, 539, 687, 727, 785, 651, 689, 919, 869, 870, 1244, 1137, 1055, 821, 1059, 1409, 1181, 1096, 2101, 2035, 790, 815, 1106, 1418, 1070, 1079, 1991, 1807, 670, 676, 800, 863, 708, 756, 1034, 1018, 751, 1104, 1197, 873, 636, 819, 898, 786, 1378, 3036, 2965, 1421, 1152, 1590, 2025, 1550, 2214, 5059, 4782, 1830, 1502, 2244, 3032, 1956, 3118, 7036, 6381, 2369, 1679, 3554, 4883, 2489, 4080, 9392, 8718, 3911, 2547, 5958, 7744, 4212, 3753, 8340, 8095, 4020, 2405, 5621, 7263, 4392, 2075, 4079, 4128, 2185, 1155, 2813, 3579, 2403, 1067, 1467, 1500, 913, 671, 1202, 1266, 929, 821, 852, 1076, 828, 622, 971, 979, 919, 803, 968, 1110, 856, 675, 977, 1038, 815, 705, 761, 922, 893, 697, 726, 762, 717, 524, 570, 689, 674, 630, 654, 670, 653, 523, 476, 517, 535, 573, 593, 627, 606, 685, 578, 572, 574, 575, 689, 688, 740, 891, 912, 886, 754, 826, 1215, 1180, 878, 1070, 1063, 1350, 1170, 1025, 1525, 1448, 1017, 896, 878, 1223, 1072, 838, 1092, 1129, 1000, 653, 684, 829, 831, 590, 705, 877, 748, 610, 596, 692, 727, 540, 710, 853, 624, 576, 577, 636, 652, 540, 611, 735, 663, 646, 649, 705, 593, 508, 555, 634, 664, 617, 551, 683, 654, 501, 532, 618, 644, 677, 675, 570, 629, 680, 522, 612, 676, 685, 736, 637, 571, 630, 611, 581, 624, 710, 822, 825, 674, 654, 686, 663, 667, 625, 765, 866, 824, 645, 695, 779, 668, 695, 645, 717, 780, 691, 674, 673, 693, 650, 599, 602, 638, 622, 650, 620, 627, 659, 670, 674, 694, 671, 684, 717, 702, 646, 712, 733, 687, 702, 632, 644, 636, 645, 736, 670, 600, 673, 711, 640, 620, 573, 665, 710, 702, 702, 566, 769, 816, 973, 763, 901, 1064, 977, 655, 1252, 1447, 1273, 724, 1016, 1548, 1260, 619, 1847, 2145, 1112, 812, 815, 1176, 1065, 795, 1682, 1809, 1123, 782, 1065, 1215, 1022, 841, 1794, 1968, 1067, 575, 1172, 1540, 1077, 711, 1482, 1674, 935, 748, 1324, 1421, 787, 728, 1253, 1367, 847, 708, 1152, 1207, 697, 725, 1115, 1184, 712, 623, 976, 948, 661, 629, 944, 947, 707, 716, 1005, 833, 732, 685, 1046, 1144, 621, 881, 1250, 972, 761, 716, 1290, 1305, 632, 875, 1174, 983, 706, 683, 1231, 1256, 728, 712, 683, 732, 664, 633, 894, 860, 720, 810, 734, 786, 710, 810, 1057, 920, 635, 753, 768, 829, 731, 746, 1058, 986, 604, 612, 588, 621, 635, 559, 670, 698, 517, 560, 534, 536, 595, 576, 628, 624, 497, 552, 611, 511, 524, 612, 654, 613, 508, 556, 548, 528, 530, 544, 533, 519, 388, 458, 481, 433, 431, 457, 411, 417, 400, 401, 438, 406, 372, 483, 544, 471, 451, 397, 462, 497, 395, 385, 577, 568, 447, 454, 428, 436, 397, 409, 432, 417, 491, 517, 442, 418, 429, 438, 444, 394]"
0.9633692502975464,-0.4101076126098633,1.726989984512329,-0.5915540456771851,-0.5441829562187195,1.9452022314071655,-0.9198787212371826,-0.23554778099060059,-2.181529998779297,16.25,-0.10265326499938965,1.0295391082763672,19.25,-0.09964919090270996,1.094198226928711,21.0,-0.04343008995056152,1.0883331298828125,15.5,0.32120728492736816,0.6491661071777344,16.0,"[628, 582, 502, 616, 698, 615, 504, 582, 604, 581, 654, 655, 681, 670, 638, 668, 502, 625, 659, 603, 557, 650, 586, 499, 466, 511, 555, 556, 509, 462, 531, 506, 459, 589, 581, 511, 501, 469, 540, 479, 484, 627, 568, 453, 518, 554, 514, 419, 536, 569, 524, 555, 482, 529, 608, 522, 522, 557, 574, 537, 526, 513, 605, 549, 519, 599, 580, 537, 499, 553, 541, 517, 478, 524, 500, 462, 469, 522, 496, 484, 505, 553, 606, 543, 464, 516, 537, 532, 504, 487, 488, 517, 482, 482, 550, 543, 471, 502, 480, 447, 514, 489, 515, 505, 477, 569, 534, 509, 516, 548, 549, 482, 610, 632, 548, 592, 605, 601, 535, 544, 680, 610, 476, 575, 636, 566, 558, 560, 560, 612, 483, 448, 541, 593, 575, 453, 525, 481, 489, 534, 489, 516, 552, 588, 656, 543, 508, 674, 668, 463, 470, 581, 564, 497, 529, 671, 653, 448, 458, 507, 567, 580, 560, 516, 627, 606, 476, 465, 561, 589, 503, 527, 522, 526, 531, 504, 520, 571, 632, 634, 591, 525, 533, 539, 503, 590, 639, 645, 622, 555, 557, 526, 478, 546, 490, 460, 544, 546, 462, 484, 618, 578, 546, 496, 552, 593, 523, 607, 671, 568, 619, 614, 537, 506, 605, 683, 532, 588, 632, 599, 493, 559, 638, 594, 574, 563, 580, 611, 541, 511, 539, 607, 582, 625, 690, 655, 638, 551, 694, 740, 628, 520, 548, 659, 723, 568, 600, 698, 618, 644, 598, 658, 719, 639, 580, 630, 637, 625, 600, 564, 637, 682, 579, 626, 662, 655, 557, 552, 617, 627, 541, 575, 508, 457, 430, 573, 543, 453, 510, 523, 533, 523, 537, 516, 541, 579, 563, 520, 562, 594, 612, 624, 601, 592, 585, 575, 657, 733, 662, 655, 737, 701, 588, 495, 658, 703, 598, 643, 733, 671, 523, 545, 549, 566, 578, 548, 583, 523, 501, 572, 557, 593, 645, 632, 516, 565, 608, 588, 649, 581, 599, 704, 607, 626, 588, 556, 693, 630, 623, 675, 655, 579, 583, 650, 583, 642, 679, 553, 521, 620, 622, 554, 559, 600, 589, 558, 589, 636, 665, 557, 560, 585, 614, 667, 748, 706, 661, 614, 515, 545, 670, 614, 611, 597, 631, 564, 646, 746, 659, 589, 621, 628, 654, 588, 779, 807, 618, 581, 678, 688, 703, 624, 648, 676, 599, 647, 614, 641, 658, 592, 570, 565, 561, 636, 581, 593, 638, 581, 733, 566, 550, 645, 658, 610, 614, 724, 573, 672, 671, 479, 624, 663, 627, 548, 560, 712, 652, 546, 554, 658, 672, 526, 631, 602, 528, 605, 604, 598, 547, 531, 638, 568, 619, 625, 574, 575, 534, 564, 588, 546, 609, 649, 586, 542, 586, 626, 557, 629, 659, 674, 623, 866, 1089, 871, 947, 1439, 1428, 1529, 812, 2139, 3857, 3238, 2079, 2286, 2586, 3043, 1816, 3229, 7108, 6496, 2108, 1783, 2322, 2611, 1915, 2197, 5687, 5609, 941, 881, 1077, 1004, 824, 998, 2061, 2057, 1130, 1851, 2184, 1514, 854, 2414, 4162, 3528, 1238, 2335, 2962, 2011, 1203, 2756, 4812, 4127, 640, 1518, 1886, 1251, 721, 1523, 2479, 2077, 606, 721, 850, 713, 640, 690, 825, 807, 534, 606, 546, 568, 575, 629, 697, 625, 599, 727, 741, 623, 551, 652, 924, 775, 610, 567, 713, 643, 548, 548, 792, 805, 594, 711, 693, 499, 551, 590, 752, 745, 621, 745, 710, 604, 579, 561, 632, 649, 573, 687, 703, 625, 569, 670, 849, 794, 894, 818, 975, 903, 680, 888, 1562, 1561, 1051, 1222, 1392, 991, 798, 994, 1612, 1632, 1572, 3115, 3099, 1554, 1096, 1450, 2336, 1882, 1714, 4535, 4634, 2138, 1139, 2044, 3530, 2655, 1077, 2435, 2956, 1707, 1036, 1808, 2623, 2277, 2184, 3586, 3988, 2508, 1433, 2934, 3815, 3152, 2556, 4058, 5367, 3540, 1237, 3168, 4053, 3870, 2309, 3072, 5003, 3259, 1192, 3198, 2707, 3219, 1624, 2234, 2889, 1838, 1040, 2053, 2005, 1828, 986, 1167, 1083, 823, 771, 945, 1050, 950, 800, 1066, 1018, 775, 676, 810, 864, 736, 684, 802, 741, 672, 718, 716, 679, 583, 618, 732, 767, 669, 632, 751, 703, 597, 651, 725, 767, 680, 648, 721, 720, 626, 820, 929, 823, 739, 764, 842, 840, 790, 797, 1001, 902, 655, 743, 916, 1063, 825, 621, 736, 674, 665, 648, 716, 865, 813, 639, 688, 698, 704, 677, 708, 915, 853, 638, 749, 785, 739, 606, 812, 993, 845, 662, 668, 765, 725, 670, 728, 806, 752, 739, 617, 693, 686, 754, 699, 672, 778, 820, 627, 671, 686, 670, 703, 729, 850, 761, 693, 590, 650, 577, 657, 682, 706, 541, 628, 597, 599, 645, 618, 624, 604, 593, 606, 676, 561, 574, 655, 628, 645, 587, 592, 608, 639, 541, 528, 633, 685, 626, 644, 716, 606, 592, 616, 635, 641, 584, 601, 724, 602, 635, 711, 663, 629, 555, 684, 709, 630, 679, 692, 722, 649, 550, 662, 680, 629, 624, 584, 600, 545, 612, 676, 652, 656, 606, 688, 716, 586, 630, 794, 704, 697, 667, 678, 646, 595, 682, 671, 641, 677, 667, 638, 705, 739, 724, 697, 782, 863, 742, 620, 972, 990, 1411, 707, 1345, 1756, 1360, 752, 2281, 2619, 1591, 609, 1194, 1926, 1706, 575, 2195, 2742, 801, 985, 979, 919, 990, 1017, 1811, 1617, 956, 1247, 1549, 1122, 775, 1393, 2627, 2410, 1148, 1076, 1648, 1277, 883, 1206, 2489, 2516, 977, 796, 1270, 1149, 965, 786, 1646, 1843, 686, 679, 734, 662, 715, 703, 733, 785, 693, 779, 799, 707, 689, 717, 749, 763, 788, 771, 841, 853, 794, 789, 890, 847, 807, 729, 855, 819, 710, 809, 1055, 1039, 822, 819, 1006, 804, 625, 846, 1343, 1323, 639, 699, 834, 789, 591, 700, 997, 940, 566, 709, 744, 618, 578, 596, 746, 768, 613, 632, 710, 646, 567, 679, 794, 788, 661, 549, 698, 627, 512, 493, 631, 744, 540, 563, 713, 595, 456, 454, 614, 676, 481, 514, 576, 499, 452, 467, 502, 512, 473, 470, 566, 486, 482, 511, 451, 527, 475, 418, 523, 508, 451, 481, 453, 518, 514, 429, 403, 451, 488, 436, 425, 519, 457, 505, 515, 471, 411, 370, 396, 440, 491, 495, 476, 508, 471, 450, 483, 492]"
0.9981990456581116,-0.3880411982536316,1.616548776626587,-0.4670344591140747,-0.4367391765117645,1.5516111850738525,-0.6887632608413696,-0.7022571563720703,1.4589786529541016,15.25,-0.3157329559326172,1.233816146850586,20.5,-0.14764785766601562,1.0295391082763672,20.25,1.3217735290527344,1.1253833770751953,16.75,1.4217662811279297,1.0040760040283203,16.0,"[551, 646, 682, 651, 535, 647, 681, 646, 562, 539, 523, 518, 590, 663, 614, 538, 556, 548, 519, 500, 529, 617, 546, 487, 603, 544, 546, 582, 531, 461, 469, 595, 591, 546, 481, 576, 522, 485, 416, 500, 539, 548, 485, 470, 481, 469, 386, 433, 460, 518, 516, 453, 475, 646, 642, 487, 436, 466, 524, 447, 389, 568, 672, 554, 463, 617, 566, 451, 420, 569, 595, 468, 502, 550, 543, 505, 448, 489, 506, 478, 556, 556, 565, 601, 521, 470, 555, 577, 534, 553, 520, 544, 537, 509, 613, 599, 463, 512, 490, 487, 495, 430, 501, 503, 455, 466, 495, 418, 474, 440, 422, 457, 499, 440, 449, 437, 476, 442, 451, 441, 486, 489, 526, 518, 525, 561, 544, 519, 505, 524, 578, 615, 567, 586, 598, 522, 556, 613, 574, 674, 596, 554, 551, 507, 504, 350, 415, 654, 605, 435, 571, 576, 528, 486, 461, 508, 614, 515, 512, 610, 595, 537, 500, 552, 658, 597, 556, 619, 585, 639, 551, 547, 660, 593, 607, 670, 584, 538, 546, 501, 576, 593, 602, 666, 605, 545, 545, 620, 558, 528, 618, 626, 509, 510, 540, 562, 515, 478, 594, 547, 589, 508, 536, 586, 510, 502, 513, 542, 557, 504, 495, 549, 489, 536, 498, 525, 596, 511, 463, 511, 477, 560, 521, 616, 616, 556, 542, 526, 517, 557, 554, 594, 708, 666, 571, 520, 544, 640, 609, 580, 538, 630, 573, 540, 522, 558, 556, 474, 555, 556, 607, 596, 576, 584, 604, 590, 553, 520, 524, 505, 482, 552, 548, 526, 608, 526, 475, 528, 567, 584, 476, 567, 547, 466, 540, 562, 521, 549, 531, 551, 485, 574, 606, 502, 465, 552, 604, 537, 440, 533, 579, 553, 485, 435, 539, 544, 546, 510, 511, 491, 558, 484, 557, 634, 480, 545, 526, 423, 471, 579, 525, 479, 562, 600, 551, 475, 663, 737, 618, 572, 672, 667, 608, 524, 627, 720, 657, 645, 744, 723, 654, 640, 657, 710, 712, 732, 650, 655, 607, 581, 662, 723, 709, 639, 603, 787, 701, 598, 603, 686, 690, 508, 585, 724, 593, 593, 569, 599, 656, 524, 588, 697, 614, 561, 602, 623, 661, 591, 958, 1096, 827, 659, 775, 953, 877, 725, 1214, 1390, 1041, 683, 969, 1270, 1126, 897, 949, 1006, 804, 625, 804, 1036, 940, 756, 705, 701, 683, 619, 679, 765, 729, 670, 603, 520, 591, 606, 608, 635, 615, 610, 623, 545, 569, 579, 612, 573, 621, 666, 610, 543, 611, 605, 577, 608, 566, 615, 553, 574, 687, 588, 455, 544, 626, 648, 645, 650, 638, 594, 605, 633, 564, 626, 674, 594, 497, 555, 594, 639, 571, 635, 650, 594, 487, 480, 573, 523, 500, 590, 672, 674, 556, 636, 647, 688, 747, 728, 1166, 1234, 1615, 1962, 1261, 1650, 3382, 3066, 2641, 2138, 3312, 4414, 2562, 3092, 7671, 7301, 2422, 1823, 3021, 3878, 2255, 2645, 6712, 6509, 916, 985, 1456, 1540, 1000, 1150, 2089, 1957, 1742, 975, 852, 2037, 2179, 892, 2319, 2961, 2768, 1607, 1358, 2922, 3216, 1492, 4449, 5246, 2288, 1223, 1074, 2225, 2510, 1030, 3104, 3922, 1291, 969, 818, 1080, 1420, 903, 1341, 1789, 714, 724, 674, 655, 713, 712, 878, 870, 557, 667, 647, 588, 551, 708, 929, 865, 588, 681, 728, 666, 689, 711, 928, 853, 589, 665, 727, 705, 677, 732, 872, 784, 630, 631, 617, 629, 631, 680, 715, 669, 634, 626, 603, 669, 615, 608, 632, 622, 586, 570, 608, 647, 588, 601, 696, 683, 629, 634, 670, 670, 569, 503, 632, 723, 854, 1004, 999, 697, 563, 733, 993, 987, 1127, 2076, 2203, 1225, 724, 1353, 2219, 1895, 1022, 2117, 2275, 1338, 797, 1485, 2236, 1828, 734, 1343, 1527, 1060, 682, 945, 1409, 1304, 845, 1828, 2413, 1596, 640, 1180, 1694, 1601, 1298, 2580, 3065, 1846, 752, 1765, 2160, 1668, 1489, 1871, 2167, 1557, 853, 1407, 1645, 1545, 1186, 1407, 1670, 1343, 899, 1103, 1344, 1341, 959, 1107, 1014, 804, 762, 967, 949, 804, 719, 765, 783, 754, 697, 676, 660, 692, 656, 650, 683, 723, 732, 594, 667, 728, 624, 557, 613, 643, 549, 541, 641, 721, 815, 774, 676, 691, 673, 645, 722, 745, 788, 929, 807, 657, 658, 764, 922, 783, 666, 837, 999, 759, 610, 809, 1176, 1091, 725, 762, 894, 900, 782, 796, 934, 877, 804, 760, 796, 876, 844, 807, 762, 834, 798, 798, 714, 675, 745, 775, 665, 708, 757, 680, 755, 726, 693, 695, 797, 831, 745, 601, 632, 736, 693, 638, 776, 761, 707, 624, 663, 716, 608, 647, 738, 636, 648, 690, 707, 674, 567, 625, 629, 597, 582, 660, 692, 677, 633, 711, 727, 631, 532, 589, 630, 584, 593, 628, 644, 609, 748, 749, 774, 724, 733, 674, 694, 785, 635, 722, 797, 628, 607, 702, 823, 806, 498, 608, 673, 600, 562, 587, 730, 667, 553, 557, 467, 550, 551, 542, 583, 579, 571, 655, 590, 586, 643, 621, 651, 568, 531, 687, 725, 563, 555, 617, 724, 686, 646, 628, 638, 645, 689, 686, 620, 627, 760, 629, 737, 841, 825, 767, 845, 884, 1002, 698, 977, 1275, 1125, 719, 1512, 1679, 1287, 1006, 1578, 1795, 1409, 885, 2506, 2734, 1840, 1619, 2599, 2378, 1604, 1706, 4527, 4619, 1663, 1538, 2497, 2133, 1173, 1806, 4258, 4216, 1117, 854, 1307, 1442, 1047, 1114, 2252, 2273, 831, 705, 923, 898, 727, 831, 984, 1081, 675, 631, 951, 856, 634, 763, 805, 835, 633, 699, 861, 784, 722, 809, 818, 784, 754, 647, 731, 756, 718, 687, 662, 804, 752, 680, 619, 586, 625, 658, 747, 759, 724, 625, 743, 592, 687, 649, 864, 933, 797, 605, 791, 752, 676, 645, 846, 905, 594, 587, 752, 682, 503, 506, 609, 698, 522, 656, 711, 651, 552, 646, 611, 562, 541, 674, 653, 539, 548, 680, 733, 515, 561, 654, 529, 490, 536, 720, 753, 529, 591, 624, 508, 492, 560, 610, 645, 555, 456, 522, 578, 515, 433, 508, 618, 575, 471, 503, 553, 456, 411, 460, 500, 473, 491, 488, 525, 500, 385, 507, 570, 509, 502, 481, 536, 563, 413, 465, 557, 443, 428, 390, 425, 433, 372, 388, 501, 490]"
