posz,velx,vely,velz,accx,accy,accz,p1x,p1y,p1z,p2x,p2y,p2z,p3x,p3y,p3z,p4x,p4y,p4z,p5x,p5y,p5z,heatmap
-0.1960640251636505,0.04040151089429855,0.23226402699947357,0.22030818462371826,0.18758134543895721,0.15355080366134644,0.1334342360496521,-0.43495965003967285,0.43430328369140625,17.25,-0.053156137466430664,0.10142326354980469,16.0,-0.0475771427154541,-0.112152099609375,16.75,-0.038278818130493164,-0.10228157043457031,21.0,-0.007665872573852539,-0.051784515380859375,20.75,"[508, 575, 554, 595, 703, 594, 556, 572, 640, 715, 676, 714, 740, 677, 609, 567, 504, 542, 627, 642, 615, 614, 624, 522, 542, 547, 526, 483, 510, 500, 544, 550, 488, 486, 565, 479, 515, 572, 461, 483, 469, 461, 431, 465, 531, 539, 441, 431, 497, 531, 525, 544, 545, 542, 516, 462, 463, 539, 549, 508, 458, 517, 523, 498, 511, 587, 612, 535, 491, 599, 629, 546, 596, 563, 567, 550, 543, 604, 578, 548, 547, 501, 603, 576, 552, 549, 523, 563, 548, 477, 553, 673, 592, 531, 455, 536, 570, 527, 555, 552, 497, 537, 536, 567, 601, 531, 520, 532, 625, 690, 670, 571, 495, 489, 519, 514, 507, 556, 559, 535, 513, 492, 539, 605, 499, 491, 494, 488, 467, 564, 578, 478, 490, 556, 533, 494, 504, 564, 595, 519, 607, 566, 470, 469, 483, 503, 583, 578, 577, 567, 495, 457, 451, 576, 645, 572, 601, 591, 580, 554, 463, 492, 573, 507, 488, 542, 602, 552, 422, 497, 535, 457, 444, 525, 656, 552, 573, 555, 485, 577, 576, 566, 665, 647, 606, 566, 487, 584, 666, 611, 491, 535, 615, 504, 534, 622, 603, 602, 580, 568, 539, 614, 710, 653, 575, 680, 639, 586, 527, 547, 628, 603, 489, 619, 561, 520, 559, 608, 576, 495, 507, 600, 509, 483, 480, 521, 509, 508, 557, 584, 491, 431, 490, 503, 523, 551, 543, 577, 509, 454, 542, 603, 546, 556, 570, 568, 572, 560, 615, 649, 587, 556, 609, 562, 531, 539, 546, 525, 543, 570, 538, 477, 463, 558, 553, 517, 575, 573, 529, 552, 577, 637, 483, 539, 633, 569, 484, 496, 570, 564, 563, 526, 618, 612, 524, 501, 555, 645, 564, 557, 516, 561, 534, 479, 532, 581, 714, 635, 642, 615, 563, 527, 608, 702, 637, 663, 633, 561, 548, 547, 535, 588, 553, 635, 583, 566, 598, 548, 492, 492, 533, 569, 632, 608, 513, 552, 590, 612, 615, 648, 597, 600, 526, 535, 623, 680, 734, 740, 846, 706, 685, 678, 867, 942, 926, 3005, 3703, 2230, 980, 1912, 2777, 2305, 1015, 5227, 6643, 3808, 849, 2737, 4382, 3876, 944, 4899, 6503, 3846, 824, 1972, 4074, 4041, 1953, 2830, 4783, 3625, 1227, 1094, 2865, 3881, 3998, 3742, 3620, 3015, 2238, 3176, 3759, 4315, 4048, 5197, 4242, 2088, 2021, 3696, 4634, 3849, 1943, 3992, 3822, 1666, 1129, 2137, 2841, 1944, 891, 2047, 2084, 1039, 727, 993, 1297, 1129, 638, 771, 760, 619, 633, 656, 588, 545, 640, 759, 620, 549, 603, 615, 715, 678, 681, 798, 828, 642, 654, 653, 591, 647, 568, 646, 704, 678, 645, 634, 591, 612, 516, 513, 597, 620, 565, 562, 654, 608, 467, 510, 615, 622, 610, 621, 656, 603, 546, 590, 625, 638, 529, 550, 609, 553, 622, 626, 598, 575, 567, 523, 505, 550, 618, 632, 533, 650, 638, 561, 495, 502, 535, 569, 594, 683, 603, 537, 575, 513, 672, 575, 708, 780, 638, 562, 586, 651, 669, 511, 691, 692, 657, 628, 638, 680, 709, 700, 721, 721, 692, 742, 746, 667, 922, 1456, 1306, 793, 1090, 1241, 1007, 670, 1022, 2009, 2011, 941, 1264, 1760, 1345, 731, 763, 1360, 1494, 956, 905, 1318, 1244, 690, 546, 621, 803, 838, 639, 497, 713, 635, 554, 591, 636, 632, 630, 558, 589, 565, 501, 577, 708, 644, 608, 712, 746, 700, 723, 865, 852, 619, 685, 760, 696, 737, 796, 814, 812, 672, 583, 627, 674, 782, 648, 592, 684, 693, 544, 592, 690, 704, 650, 694, 795, 695, 580, 641, 707, 700, 701, 657, 717, 625, 590, 591, 600, 731, 529, 643, 589, 512, 591, 569, 463, 471, 557, 672, 672, 652, 595, 663, 600, 531, 609, 614, 699, 688, 652, 629, 606, 599, 627, 690, 724, 699, 685, 604, 680, 677, 574, 634, 673, 676, 629, 598, 652, 579, 531, 592, 557, 569, 587, 544, 575, 622, 615, 616, 591, 626, 651, 644, 617, 611, 647, 577, 622, 688, 712, 660, 632, 658, 720, 696, 660, 596, 636, 646, 555, 689, 723, 680, 642, 608, 578, 674, 569, 631, 703, 603, 681, 609, 636, 684, 635, 660, 638, 546, 700, 634, 626, 659, 656, 734, 690, 618, 785, 687, 622, 642, 743, 801, 649, 565, 589, 627, 566, 532, 629, 695, 624, 596, 646, 645, 584, 541, 638, 668, 599, 580, 546, 578, 541, 539, 530, 562, 582, 572, 590, 614, 583, 598, 500, 560, 506, 568, 605, 580, 512, 548, 582, 553, 564, 664, 626, 536, 604, 706, 772, 628, 557, 549, 550, 648, 679, 591, 574, 593, 621, 532, 589, 663, 601, 551, 550, 590, 546, 529, 649, 692, 613, 537, 533, 575, 543, 617, 635, 669, 659, 605, 611, 584, 568, 594, 602, 572, 572, 572, 599, 617, 615, 677, 656, 555, 574, 660, 651, 573, 599, 693, 643, 584, 623, 651, 549, 512, 529, 589, 524, 514, 580, 554, 503, 525, 608, 562, 545, 640, 585, 520, 552, 591, 650, 652, 544, 650, 663, 586, 641, 637, 615, 619, 591, 620, 585, 615, 629, 564, 599, 583, 637, 558, 521, 588, 558, 578, 656, 678, 622, 504, 544, 625, 609, 638, 625, 660, 666, 557, 570, 597, 671, 650, 608, 650, 685, 624, 538, 536, 631, 690, 641, 641, 654, 604, 534, 506, 586, 591, 620, 594, 608, 570, 621, 634, 570, 596, 585, 608, 633, 570, 576, 622, 603, 571, 478, 587, 606, 610, 594, 479, 485, 582, 558, 586, 664, 597, 646, 589, 651, 671, 521, 594, 618, 565, 600, 682, 683, 647, 500, 640, 610, 486, 528, 619, 625, 565, 535, 668, 633, 520, 600, 664, 549, 509, 543, 597, 548, 582, 575, 577, 540, 514, 460, 582, 529, 586, 567, 558, 545, 465, 502, 569, 548, 549, 529, 550, 546, 467, 492, 506, 452, 460, 497, 480, 471, 443, 470, 471, 483, 488, 455, 451, 431, 391, 491, 456, 506, 531, 560, 483, 417, 479, 501, 491, 453, 494, 458, 539, 491, 443, 451, 398, 422, 470, 408, 459, 427, 400, 460, 443, 458, 555, 562, 468, 415, 510, 428, 441, 393, 452, 455, 418, 389, 400, 430, 408, 432, 469, 447, 382, 394, 423]"
-0.17835736274719238,0.11791441589593887,0.3310684561729431,0.18100401759147644,0.1600508689880371,0.3370741605758667,0.05352891981601715,-0.17336821556091309,-0.44689178466796875,22.25,-0.1692197322845459,-0.3321647644042969,19.5,-0.1456162929534912,-0.33416748046875,24.25,-0.0204465389251709,-0.10228157043457031,16.25,-0.015010595321655273,-0.2064228057861328,15.75,"[543, 655, 612, 564, 687, 564, 614, 652, 485, 544, 578, 585, 615, 669, 628, 549, 475, 535, 586, 523, 492, 612, 642, 552, 524, 455, 483, 458, 438, 526, 495, 516, 492, 422, 419, 407, 445, 491, 440, 443, 486, 429, 468, 471, 428, 476, 499, 524, 472, 404, 437, 452, 464, 499, 496, 513, 483, 509, 468, 487, 573, 521, 561, 541, 566, 598, 503, 489, 556, 531, 501, 477, 549, 501, 476, 500, 549, 539, 483, 499, 487, 468, 495, 523, 530, 534, 531, 506, 492, 488, 445, 487, 497, 451, 486, 470, 551, 549, 511, 504, 538, 412, 491, 550, 621, 658, 619, 565, 579, 564, 512, 592, 607, 662, 612, 493, 522, 585, 607, 557, 672, 691, 608, 523, 641, 618, 543, 605, 549, 570, 512, 515, 583, 580, 532, 465, 559, 518, 543, 586, 600, 601, 584, 548, 503, 470, 464, 520, 554, 602, 594, 579, 552, 489, 455, 467, 529, 521, 500, 554, 543, 544, 489, 501, 516, 504, 442, 513, 507, 574, 550, 562, 596, 567, 505, 540, 513, 555, 469, 498, 580, 532, 516, 509, 563, 584, 555, 518, 518, 570, 651, 660, 497, 510, 562, 519, 531, 518, 580, 601, 521, 536, 531, 522, 524, 528, 515, 531, 504, 607, 585, 502, 514, 640, 590, 502, 543, 599, 498, 494, 532, 592, 585, 562, 516, 508, 486, 481, 572, 567, 563, 559, 615, 565, 519, 586, 572, 474, 562, 602, 545, 575, 522, 512, 464, 459, 487, 462, 516, 521, 510, 614, 602, 433, 525, 588, 464, 464, 444, 523, 521, 456, 487, 502, 517, 467, 527, 599, 538, 470, 518, 588, 535, 485, 500, 509, 433, 477, 502, 471, 512, 492, 573, 530, 422, 566, 573, 524, 543, 521, 593, 521, 557, 672, 646, 571, 606, 546, 584, 611, 635, 722, 694, 562, 527, 512, 530, 612, 583, 617, 615, 535, 613, 551, 585, 612, 580, 548, 489, 550, 656, 561, 529, 629, 593, 505, 503, 553, 570, 532, 513, 620, 617, 544, 486, 520, 701, 611, 951, 901, 596, 545, 725, 901, 816, 1322, 2185, 1606, 545, 1036, 1312, 1490, 1082, 2132, 3502, 2563, 805, 1373, 1788, 2166, 833, 2063, 3400, 2530, 701, 1297, 1839, 2100, 841, 1314, 1829, 1468, 868, 1070, 1411, 1235, 2346, 5143, 4706, 1747, 1718, 2972, 3176, 1561, 3992, 9820, 9206, 3425, 2095, 4563, 6507, 3544, 3107, 7752, 7298, 2800, 1678, 3310, 5157, 3019, 1244, 2350, 2200, 1062, 1004, 1133, 1481, 1173, 797, 1085, 1008, 690, 766, 784, 673, 643, 559, 762, 719, 547, 568, 507, 621, 591, 614, 642, 666, 642, 558, 495, 678, 669, 538, 534, 671, 672, 501, 574, 683, 673, 592, 576, 609, 606, 535, 543, 719, 711, 551, 583, 555, 520, 510, 450, 517, 547, 635, 559, 470, 510, 593, 579, 496, 552, 636, 634, 522, 538, 585, 672, 574, 558, 559, 687, 667, 531, 493, 607, 655, 608, 569, 626, 571, 578, 594, 541, 552, 614, 718, 651, 658, 603, 616, 615, 591, 671, 676, 571, 622, 589, 515, 558, 592, 692, 658, 565, 598, 599, 578, 596, 540, 547, 703, 750, 622, 676, 746, 649, 573, 516, 678, 750, 740, 837, 804, 706, 601, 556, 719, 658, 634, 792, 692, 575, 547, 513, 689, 710, 659, 631, 503, 495, 584, 578, 652, 627, 581, 589, 504, 460, 622, 657, 623, 545, 459, 504, 533, 544, 575, 613, 611, 652, 524, 474, 529, 585, 586, 510, 625, 693, 642, 567, 507, 663, 629, 521, 655, 600, 657, 687, 614, 580, 589, 621, 651, 483, 526, 618, 590, 562, 523, 624, 615, 505, 526, 627, 617, 550, 488, 587, 600, 508, 498, 570, 597, 581, 594, 679, 562, 550, 486, 574, 579, 572, 573, 530, 591, 581, 617, 697, 655, 581, 637, 570, 607, 591, 701, 627, 625, 656, 649, 639, 575, 651, 690, 617, 680, 691, 662, 651, 606, 697, 670, 654, 684, 607, 665, 668, 619, 621, 692, 667, 651, 544, 532, 645, 486, 576, 650, 567, 620, 661, 599, 575, 552, 606, 586, 617, 582, 645, 693, 615, 490, 538, 608, 573, 524, 630, 697, 579, 627, 565, 575, 626, 601, 611, 630, 547, 670, 604, 506, 546, 603, 527, 504, 614, 632, 635, 581, 655, 625, 533, 549, 582, 523, 590, 605, 599, 543, 612, 696, 609, 626, 706, 674, 591, 588, 650, 654, 662, 644, 614, 622, 691, 662, 647, 621, 629, 638, 566, 598, 707, 608, 593, 603, 647, 574, 512, 503, 510, 493, 554, 564, 540, 509, 537, 559, 590, 569, 538, 646, 618, 546, 561, 660, 722, 576, 567, 599, 640, 624, 589, 621, 704, 636, 587, 625, 643, 597, 593, 502, 524, 597, 592, 522, 584, 578, 560, 516, 538, 578, 569, 524, 528, 628, 604, 500, 497, 600, 583, 491, 523, 603, 625, 600, 504, 593, 595, 495, 532, 576, 589, 622, 575, 614, 588, 524, 566, 587, 643, 749, 654, 525, 637, 637, 613, 559, 590, 605, 558, 553, 582, 620, 571, 560, 596, 593, 560, 549, 505, 558, 577, 481, 584, 573, 526, 557, 538, 524, 538, 619, 598, 527, 565, 623, 566, 591, 644, 602, 680, 679, 626, 630, 535, 611, 613, 549, 590, 590, 652, 608, 531, 641, 604, 596, 552, 520, 592, 527, 460, 484, 534, 565, 598, 611, 590, 509, 468, 513, 501, 588, 588, 591, 619, 507, 534, 585, 549, 524, 560, 573, 555, 447, 566, 653, 561, 483, 543, 484, 471, 489, 515, 576, 530, 598, 567, 504, 592, 628, 531, 462, 523, 499, 557, 562, 515, 608, 560, 498, 473, 557, 558, 512, 551, 572, 509, 514, 566, 553, 516, 555, 577, 566, 479, 585, 681, 570, 578, 577, 558, 614, 542, 609, 705, 580, 647, 577, 556, 630, 592, 512, 462, 550, 593, 471, 510, 613, 550, 499, 523, 522, 474, 440, 491, 515, 502, 462, 465, 498, 503, 474, 424, 404, 514, 521, 469, 448, 455, 444, 406, 418, 476, 442, 389, 419, 413, 429, 427, 411, 437, 382, 393, 369, 339, 398, 391, 361, 419, 455, 426, 419, 409, 381, 459, 473, 414, 438, 398, 376, 384, 397, 391, 388, 381, 355, 336, 362, 398, 470, 468, 371, 369, 433, 435]"
-0.2656954824924469,0.12103481590747833,0.27224791049957275,-0.076568603515625,0.1500229835510254,0.20624367892742157,-0.2582051753997803,-0.12632322311401367,0.15234947204589844,16.0,-0.11144590377807617,-0.6118297576904297,17.5,-0.09871435165405273,0.10228157043457031,22.0,-0.06566953659057617,0.0,20.25,0.016155719757080078,-0.4367351531982422,15.25,"[494, 556, 640, 614, 566, 616, 643, 555, 537, 509, 560, 584, 581, 606, 609, 589, 471, 510, 516, 577, 586, 624, 630, 535, 456, 503, 475, 537, 511, 390, 474, 475, 451, 380, 490, 532, 451, 422, 401, 504, 542, 446, 565, 498, 532, 531, 426, 565, 454, 466, 519, 522, 553, 555, 539, 532, 457, 533, 542, 554, 538, 548, 618, 505, 466, 459, 562, 591, 468, 476, 511, 514, 531, 538, 505, 511, 429, 470, 590, 565, 526, 540, 565, 553, 463, 518, 544, 517, 653, 604, 566, 645, 586, 504, 596, 610, 678, 659, 556, 586, 501, 563, 613, 569, 632, 633, 556, 545, 576, 575, 577, 613, 620, 660, 584, 550, 566, 502, 549, 574, 669, 760, 646, 520, 489, 529, 563, 537, 710, 683, 552, 533, 614, 655, 577, 573, 606, 628, 551, 625, 651, 588, 559, 584, 545, 638, 673, 628, 621, 608, 534, 542, 564, 582, 662, 597, 575, 605, 623, 646, 511, 557, 638, 574, 563, 535, 551, 562, 567, 584, 555, 521, 552, 636, 563, 511, 554, 572, 517, 541, 551, 625, 615, 559, 480, 446, 531, 539, 457, 512, 550, 519, 521, 496, 511, 535, 468, 470, 539, 521, 575, 558, 585, 577, 530, 500, 550, 539, 507, 553, 585, 544, 492, 456, 516, 507, 606, 550, 603, 668, 602, 525, 591, 642, 620, 499, 493, 493, 539, 599, 525, 546, 520, 519, 532, 542, 500, 508, 588, 583, 499, 486, 622, 636, 484, 490, 577, 615, 650, 541, 539, 564, 493, 499, 597, 657, 586, 568, 540, 523, 475, 558, 519, 518, 614, 580, 519, 529, 532, 550, 519, 502, 611, 665, 620, 604, 650, 610, 560, 594, 567, 580, 556, 530, 606, 575, 544, 625, 512, 497, 539, 598, 562, 502, 491, 567, 452, 515, 554, 546, 600, 574, 555, 559, 581, 565, 589, 513, 674, 652, 496, 585, 594, 655, 605, 582, 652, 610, 565, 556, 580, 582, 562, 528, 543, 600, 530, 519, 608, 617, 575, 485, 601, 665, 592, 567, 685, 740, 796, 695, 650, 674, 763, 785, 976, 3120, 3561, 1965, 900, 1785, 2251, 1604, 1399, 5951, 7138, 3874, 1229, 3020, 3608, 2880, 1471, 4746, 5927, 3607, 1289, 2467, 2173, 2286, 1307, 1718, 3132, 2597, 1205, 1353, 1387, 2078, 975, 2154, 3445, 2513, 1094, 1629, 2350, 2508, 857, 3940, 4758, 2519, 1035, 2108, 3319, 2911, 1332, 4153, 4459, 2081, 1009, 1791, 2809, 2164, 1359, 2567, 2454, 1178, 808, 1182, 1410, 1010, 917, 1051, 971, 714, 667, 773, 747, 736, 656, 624, 617, 637, 603, 556, 577, 593, 632, 715, 681, 610, 525, 595, 628, 536, 517, 655, 672, 673, 574, 638, 580, 544, 614, 626, 624, 610, 600, 667, 572, 569, 573, 643, 669, 597, 583, 568, 597, 559, 696, 750, 669, 610, 677, 628, 679, 597, 639, 674, 649, 603, 576, 611, 674, 601, 553, 617, 550, 534, 538, 556, 599, 563, 485, 615, 587, 549, 571, 604, 646, 579, 570, 604, 586, 633, 560, 572, 668, 605, 461, 477, 650, 547, 428, 545, 580, 569, 523, 549, 611, 550, 489, 643, 641, 531, 496, 698, 770, 616, 536, 607, 585, 527, 693, 836, 859, 645, 804, 811, 666, 688, 602, 670, 663, 622, 830, 857, 657, 652, 720, 737, 718, 653, 698, 724, 693, 634, 672, 675, 733, 682, 676, 627, 697, 723, 610, 614, 744, 747, 645, 601, 618, 668, 576, 670, 695, 602, 570, 634, 572, 540, 554, 595, 622, 549, 567, 520, 494, 556, 572, 628, 558, 607, 592, 529, 520, 496, 690, 646, 560, 685, 720, 499, 577, 657, 628, 699, 713, 676, 734, 653, 660, 664, 687, 741, 689, 707, 683, 697, 681, 669, 662, 650, 630, 707, 634, 732, 697, 573, 695, 552, 465, 627, 695, 625, 574, 634, 695, 602, 569, 639, 669, 594, 620, 760, 585, 620, 593, 548, 621, 572, 573, 590, 505, 561, 604, 537, 605, 612, 558, 578, 583, 585, 641, 696, 680, 672, 638, 613, 566, 661, 702, 680, 588, 577, 676, 576, 616, 667, 647, 709, 627, 523, 642, 630, 637, 633, 576, 563, 537, 492, 610, 635, 646, 672, 541, 530, 630, 644, 624, 637, 594, 607, 593, 550, 610, 583, 582, 583, 684, 721, 676, 666, 752, 652, 647, 710, 640, 729, 726, 638, 713, 655, 539, 664, 617, 623, 555, 663, 766, 625, 492, 568, 536, 558, 508, 501, 589, 569, 528, 561, 559, 559, 577, 536, 545, 584, 564, 544, 518, 595, 663, 606, 552, 659, 661, 503, 620, 702, 660, 574, 541, 609, 607, 491, 602, 613, 566, 559, 576, 512, 524, 558, 589, 572, 561, 500, 476, 583, 616, 596, 540, 513, 500, 477, 464, 571, 560, 539, 403, 522, 619, 526, 431, 542, 538, 474, 585, 547, 588, 610, 575, 600, 565, 562, 658, 596, 560, 561, 569, 572, 572, 607, 565, 515, 559, 510, 482, 502, 522, 516, 581, 573, 553, 510, 533, 540, 526, 570, 537, 425, 508, 556, 589, 524, 548, 580, 489, 476, 529, 582, 551, 594, 603, 534, 608, 410, 545, 658, 568, 459, 545, 644, 666, 493, 584, 620, 616, 558, 511, 624, 626, 532, 560, 568, 566, 574, 496, 570, 632, 598, 585, 684, 666, 551, 546, 658, 573, 650, 576, 591, 632, 611, 555, 546, 548, 598, 579, 516, 544, 580, 583, 540, 588, 557, 510, 550, 557, 568, 610, 623, 659, 615, 484, 555, 613, 598, 508, 570, 496, 554, 535, 525, 536, 482, 511, 529, 534, 639, 648, 565, 545, 515, 597, 573, 612, 624, 691, 691, 558, 498, 635, 662, 620, 572, 600, 619, 520, 485, 546, 629, 525, 522, 581, 574, 469, 504, 607, 574, 582, 577, 468, 447, 568, 508, 567, 616, 609, 547, 494, 597, 573, 471, 507, 606, 584, 512, 520, 557, 500, 438, 511, 562, 500, 489, 474, 501, 455, 477, 571, 585, 563, 485, 486, 530, 464, 497, 526, 579, 500, 524, 517, 464, 407, 462, 515, 503, 456, 492, 474, 493, 482, 473, 516, 496, 439, 414, 390, 443, 436, 403, 394, 394, 384, 425, 424, 417, 443, 459, 433, 402, 442, 402, 458, 462, 429, 431, 426, 439, 402, 417, 461, 486, 393, 420, 471, 400]"
-0.29195085167884827,0.11000387370586395,0.18559134006500244,-0.14348889887332916,0.14221103489398956,0.026869311928749084,-0.29997220635414124,-0.7054191827774048,1.2537002563476562,20.25,-0.2068859338760376,-0.6697654724121094,17.25,-0.03565371036529541,0.27294158935546875,20.5,-0.019918084144592285,-0.055217742919921875,20.0,-0.00017702579498291016,0.10771751403808594,17.5,"[536, 642, 645, 601, 708, 604, 640, 642, 522, 575, 598, 605, 589, 591, 634, 640, 504, 518, 512, 634, 569, 557, 574, 533, 446, 496, 413, 536, 564, 493, 527, 470, 402, 450, 476, 451, 492, 497, 537, 485, 645, 510, 484, 528, 635, 561, 516, 626, 616, 565, 511, 486, 514, 564, 480, 555, 556, 493, 506, 497, 464, 459, 469, 499, 550, 538, 601, 539, 498, 492, 493, 484, 516, 520, 568, 549, 479, 486, 483, 522, 402, 455, 457, 484, 522, 499, 488, 406, 572, 627, 540, 546, 579, 523, 484, 529, 506, 486, 549, 583, 537, 516, 534, 491, 468, 418, 522, 600, 515, 489, 591, 526, 561, 539, 429, 556, 622, 592, 590, 571, 603, 614, 572, 694, 685, 490, 549, 551, 691, 865, 695, 694, 744, 603, 604, 574, 679, 720, 645, 628, 581, 594, 580, 570, 625, 535, 592, 688, 563, 485, 537, 600, 564, 576, 720, 715, 691, 572, 634, 693, 528, 601, 717, 703, 628, 568, 691, 687, 616, 698, 656, 599, 652, 592, 684, 630, 572, 624, 576, 514, 653, 597, 598, 591, 619, 669, 542, 594, 680, 699, 621, 620, 537, 549, 515, 563, 613, 549, 524, 510, 571, 524, 565, 516, 547, 570, 493, 521, 630, 500, 541, 519, 593, 645, 562, 614, 633, 592, 528, 473, 621, 638, 528, 609, 602, 687, 630, 494, 534, 589, 619, 579, 615, 637, 591, 590, 574, 565, 611, 645, 554, 578, 577, 580, 574, 517, 574, 528, 587, 532, 686, 692, 544, 467, 580, 659, 574, 499, 563, 593, 504, 467, 463, 519, 541, 493, 535, 510, 483, 557, 552, 501, 532, 587, 581, 513, 555, 630, 583, 501, 552, 524, 549, 486, 526, 568, 530, 567, 584, 530, 527, 522, 624, 594, 508, 562, 606, 597, 602, 608, 680, 727, 589, 520, 657, 662, 594, 567, 645, 677, 651, 577, 658, 662, 630, 653, 669, 648, 645, 621, 531, 567, 685, 653, 604, 607, 531, 555, 697, 553, 638, 645, 524, 567, 581, 663, 651, 689, 711, 653, 630, 668, 629, 679, 850, 1486, 1590, 1006, 777, 1134, 1257, 882, 1398, 1558, 1371, 1119, 923, 1443, 1185, 830, 1576, 1239, 1902, 1817, 942, 1332, 1662, 1767, 1399, 3576, 4454, 2662, 1194, 2760, 3668, 2885, 1747, 5765, 6584, 3720, 1678, 3543, 5936, 4761, 1898, 6417, 6947, 3595, 1375, 2692, 5167, 4160, 1513, 4653, 4789, 2125, 1015, 1868, 3568, 2675, 784, 1574, 1652, 957, 642, 941, 1579, 1286, 728, 896, 991, 700, 591, 690, 779, 743, 776, 1234, 1281, 793, 618, 691, 771, 693, 704, 944, 912, 711, 679, 660, 753, 719, 641, 712, 678, 661, 643, 685, 741, 663, 684, 739, 716, 577, 528, 630, 714, 726, 518, 626, 658, 503, 487, 597, 640, 612, 617, 637, 657, 512, 561, 752, 693, 575, 619, 635, 679, 629, 685, 722, 698, 617, 527, 567, 626, 594, 546, 532, 579, 566, 532, 510, 558, 585, 575, 568, 556, 568, 666, 579, 664, 652, 662, 625, 614, 650, 606, 554, 617, 643, 606, 646, 625, 645, 634, 632, 639, 652, 670, 693, 646, 600, 575, 606, 621, 617, 560, 594, 602, 573, 631, 709, 836, 774, 626, 591, 726, 686, 617, 812, 768, 605, 546, 625, 674, 563, 627, 632, 615, 570, 602, 591, 584, 567, 556, 557, 619, 575, 660, 603, 575, 630, 528, 550, 594, 539, 561, 564, 595, 605, 549, 629, 697, 565, 599, 640, 667, 641, 596, 660, 639, 532, 538, 591, 539, 572, 607, 726, 591, 497, 624, 632, 530, 458, 595, 650, 575, 559, 628, 573, 543, 581, 583, 674, 615, 553, 526, 608, 608, 537, 554, 572, 617, 581, 498, 529, 568, 571, 602, 539, 601, 597, 495, 561, 625, 645, 750, 637, 634, 597, 589, 562, 663, 756, 649, 634, 662, 652, 670, 613, 680, 762, 647, 575, 640, 636, 618, 636, 648, 645, 668, 626, 629, 631, 661, 646, 590, 656, 659, 642, 606, 629, 687, 707, 653, 611, 671, 627, 522, 609, 634, 648, 566, 537, 644, 623, 577, 599, 556, 666, 622, 569, 712, 762, 779, 662, 567, 709, 698, 747, 640, 755, 850, 701, 525, 580, 599, 640, 603, 718, 695, 592, 552, 623, 665, 515, 648, 780, 683, 603, 622, 693, 630, 562, 638, 656, 715, 665, 643, 613, 638, 633, 608, 640, 570, 629, 650, 617, 616, 501, 525, 604, 630, 628, 560, 603, 623, 492, 546, 644, 644, 554, 452, 570, 577, 415, 610, 610, 547, 579, 524, 542, 547, 453, 656, 632, 527, 652, 680, 583, 507, 577, 662, 553, 547, 605, 644, 585, 512, 567, 710, 696, 670, 630, 614, 580, 601, 668, 596, 676, 627, 546, 471, 518, 482, 502, 661, 623, 572, 522, 583, 559, 507, 562, 638, 519, 520, 522, 542, 555, 484, 557, 608, 558, 570, 580, 574, 556, 520, 543, 628, 551, 540, 595, 605, 539, 533, 593, 528, 438, 498, 557, 575, 560, 612, 585, 616, 589, 493, 544, 505, 539, 542, 533, 646, 624, 558, 643, 582, 558, 578, 571, 563, 619, 550, 580, 598, 602, 633, 557, 572, 624, 572, 629, 624, 616, 704, 634, 623, 562, 594, 644, 634, 575, 516, 613, 660, 642, 667, 616, 582, 597, 625, 701, 628, 685, 682, 560, 562, 613, 657, 627, 535, 595, 637, 641, 606, 577, 572, 539, 595, 633, 683, 615, 614, 636, 555, 550, 613, 596, 649, 661, 718, 694, 569, 642, 590, 548, 585, 628, 596, 487, 505, 610, 673, 639, 537, 608, 652, 600, 559, 599, 562, 520, 476, 564, 630, 621, 574, 534, 574, 550, 518, 564, 617, 525, 484, 530, 604, 574, 553, 631, 628, 568, 529, 580, 572, 539, 529, 582, 560, 606, 557, 489, 607, 547, 519, 541, 539, 580, 636, 651, 566, 572, 596, 559, 533, 523, 609, 628, 567, 551, 478, 432, 554, 609, 509, 536, 579, 548, 431, 472, 594, 581, 528, 475, 515, 554, 464, 501, 534, 521, 470, 416, 496, 550, 499, 460, 475, 540, 515, 422, 431, 446, 406, 441, 469, 466, 463, 412, 373, 471, 447, 432, 393, 362, 392, 396, 384, 440, 372, 374, 400, 375, 386, 337, 388, 411, 376, 432, 440, 373, 349, 359]"
-0.2495325207710266,-0.054968059062957764,0.04845118522644043,-0.029437273740768433,-0.0811595767736435,-0.16533254086971283,-0.1279040277004242,-0.6463993787765503,-0.8597373962402344,16.25,-0.5283821821212769,1.0934829711914062,19.0,-0.0849236249923706,0.25348663330078125,17.5,0.04367935657501221,-0.11172294616699219,16.75,0.05784142017364502,0.11057853698730469,18.5,"[658, 709, 606, 584, 725, 584, 605, 706, 526, 707, 745, 692, 665, 693, 685, 572, 506, 672, 748, 610, 573, 574, 603, 571, 551, 577, 462, 441, 578, 547, 538, 553, 588, 478, 429, 511, 553, 443, 417, 552, 626, 477, 394, 471, 531, 463, 491, 590, 450, 461, 508, 419, 397, 474, 455, 501, 524, 615, 676, 595, 525, 523, 506, 554, 470, 580, 680, 574, 559, 608, 523, 522, 447, 498, 587, 560, 582, 578, 553, 536, 494, 534, 523, 506, 586, 643, 557, 468, 491, 511, 541, 534, 576, 616, 547, 493, 480, 469, 529, 590, 595, 528, 464, 415, 491, 498, 562, 615, 585, 540, 525, 490, 506, 652, 627, 544, 556, 530, 538, 554, 652, 835, 712, 589, 636, 600, 584, 556, 773, 1035, 860, 617, 675, 632, 592, 497, 866, 1024, 884, 695, 775, 675, 521, 638, 767, 767, 677, 597, 611, 604, 539, 685, 775, 788, 669, 546, 567, 633, 661, 725, 813, 765, 707, 595, 545, 544, 707, 816, 711, 701, 609, 630, 669, 566, 633, 785, 538, 584, 573, 511, 572, 598, 476, 468, 571, 496, 651, 633, 526, 622, 574, 573, 482, 447, 524, 567, 515, 590, 569, 554, 572, 478, 549, 540, 518, 524, 569, 602, 604, 515, 504, 573, 524, 470, 501, 612, 548, 479, 539, 565, 478, 506, 536, 600, 495, 483, 550, 556, 519, 549, 568, 570, 596, 581, 633, 658, 587, 476, 478, 569, 652, 625, 608, 654, 639, 569, 507, 561, 572, 609, 583, 580, 610, 514, 495, 568, 443, 537, 548, 480, 525, 477, 441, 482, 382, 490, 511, 464, 491, 475, 522, 491, 501, 542, 497, 478, 452, 485, 567, 533, 683, 627, 531, 560, 639, 630, 507, 548, 634, 650, 458, 427, 579, 603, 474, 474, 451, 491, 498, 492, 477, 501, 569, 521, 458, 539, 556, 553, 494, 511, 635, 614, 499, 567, 557, 547, 604, 581, 537, 528, 611, 613, 688, 593, 599, 572, 545, 617, 698, 635, 742, 649, 564, 543, 521, 695, 719, 794, 955, 807, 650, 665, 701, 795, 863, 2338, 2885, 1794, 752, 1325, 1692, 1429, 1127, 3222, 3838, 2235, 686, 1719, 1886, 1390, 1218, 2027, 2322, 1573, 730, 1189, 1564, 1427, 2942, 3805, 3102, 1778, 1675, 1952, 2313, 2017, 2706, 5233, 5631, 3239, 1608, 2311, 4342, 3730, 1263, 4841, 5790, 3388, 1083, 2156, 4744, 4269, 1573, 4029, 4541, 2353, 1191, 2214, 3252, 2727, 1044, 1707, 1572, 864, 862, 1189, 1286, 999, 704, 740, 931, 769, 598, 647, 578, 746, 595, 822, 1006, 711, 567, 608, 639, 721, 570, 662, 751, 616, 523, 493, 484, 643, 599, 640, 683, 660, 635, 603, 637, 647, 548, 639, 737, 657, 646, 725, 710, 642, 546, 645, 696, 610, 497, 596, 587, 528, 581, 671, 735, 624, 449, 551, 644, 631, 627, 798, 729, 579, 551, 687, 827, 655, 604, 680, 631, 537, 574, 630, 722, 616, 645, 627, 474, 538, 614, 552, 598, 620, 715, 641, 539, 588, 656, 558, 545, 626, 570, 550, 552, 560, 611, 465, 477, 562, 635, 640, 601, 564, 589, 559, 565, 613, 700, 832, 781, 551, 595, 721, 632, 600, 806, 1081, 1136, 705, 660, 1020, 825, 590, 693, 943, 1163, 777, 628, 1025, 908, 596, 543, 770, 928, 716, 543, 795, 749, 583, 623, 628, 641, 590, 581, 667, 661, 570, 682, 638, 533, 635, 747, 676, 614, 557, 620, 661, 679, 666, 679, 668, 611, 568, 611, 637, 685, 603, 554, 551, 611, 571, 570, 598, 641, 682, 666, 582, 593, 646, 583, 686, 751, 661, 687, 631, 618, 692, 529, 643, 721, 653, 623, 625, 663, 602, 576, 615, 739, 745, 678, 568, 638, 664, 598, 582, 592, 615, 610, 514, 505, 612, 642, 592, 619, 603, 500, 556, 691, 647, 634, 544, 639, 694, 558, 463, 678, 741, 634, 579, 784, 814, 721, 625, 724, 753, 664, 674, 577, 702, 684, 583, 627, 637, 661, 691, 536, 504, 534, 545, 507, 513, 637, 648, 530, 632, 645, 552, 638, 658, 634, 671, 733, 677, 615, 654, 720, 700, 522, 609, 646, 569, 511, 550, 619, 635, 489, 526, 684, 610, 528, 623, 661, 632, 624, 673, 634, 674, 621, 672, 702, 634, 696, 672, 702, 701, 651, 650, 672, 758, 625, 618, 680, 689, 616, 621, 607, 650, 670, 618, 613, 715, 648, 548, 608, 649, 791, 693, 484, 694, 805, 607, 564, 696, 681, 624, 584, 683, 725, 613, 547, 617, 567, 599, 583, 591, 564, 600, 576, 523, 557, 506, 552, 560, 558, 604, 604, 616, 520, 546, 507, 513, 542, 507, 509, 601, 593, 628, 608, 563, 680, 649, 576, 620, 552, 605, 619, 570, 684, 642, 553, 545, 608, 592, 598, 610, 595, 602, 606, 593, 547, 649, 596, 493, 534, 602, 569, 510, 567, 687, 662, 530, 475, 577, 559, 540, 486, 591, 615, 540, 521, 647, 615, 510, 659, 620, 621, 668, 478, 603, 664, 618, 611, 626, 620, 538, 581, 613, 660, 665, 594, 591, 570, 609, 548, 578, 756, 707, 583, 677, 591, 549, 573, 686, 749, 632, 557, 588, 647, 589, 526, 581, 614, 576, 515, 600, 625, 536, 469, 521, 563, 561, 632, 624, 608, 639, 688, 556, 523, 581, 687, 684, 624, 678, 733, 630, 565, 662, 583, 621, 644, 563, 588, 658, 594, 551, 661, 705, 782, 616, 576, 706, 622, 599, 655, 665, 687, 585, 639, 642, 602, 640, 550, 554, 463, 493, 513, 493, 497, 552, 555, 539, 504, 502, 546, 581, 578, 505, 599, 570, 548, 630, 645, 539, 556, 613, 589, 587, 547, 650, 609, 556, 660, 623, 595, 687, 545, 548, 598, 631, 629, 532, 721, 726, 526, 620, 622, 707, 728, 596, 687, 636, 548, 538, 529, 622, 655, 593, 546, 461, 456, 497, 526, 592, 573, 544, 477, 428, 396, 481, 512, 515, 530, 498, 444, 521, 464, 498, 538, 537, 500, 424, 460, 525, 438, 375, 456, 477, 410, 344, 495, 449, 399, 453, 457, 417, 420, 445, 452, 367, 357, 387, 441, 424, 468, 528, 468, 389, 440, 449, 362, 408, 501, 513, 499, 444, 407, 437, 500, 460, 375, 412, 467, 460, 414, 406, 492, 474, 401, 423]"
-0.08214984834194183,-0.03071746975183487,-0.09106510877609253,0.38427263498306274,0.05889703333377838,-0.4523352384567261,0.3956582844257355,-0.11458981037139893,0.4363059997558594,23.0,-0.10543453693389893,-0.31714439392089844,21.25,-0.08369076251983643,-0.10728836059570312,28.0,-0.06938564777374268,0.054073333740234375,28.75,-0.0118790864944458,-0.10342597961425781,16.25,"[460, 534, 588, 567, 626, 567, 587, 528, 419, 542, 558, 608, 628, 610, 583, 486, 543, 503, 436, 518, 550, 605, 505, 508, 498, 534, 422, 508, 576, 459, 454, 488, 531, 581, 475, 470, 558, 488, 531, 536, 601, 585, 458, 492, 587, 612, 564, 532, 549, 628, 501, 479, 516, 540, 489, 446, 528, 550, 484, 492, 515, 503, 470, 442, 550, 543, 502, 444, 465, 523, 462, 472, 580, 514, 459, 491, 505, 557, 532, 517, 591, 481, 536, 606, 572, 546, 614, 638, 613, 546, 428, 518, 538, 516, 485, 496, 492, 621, 565, 493, 478, 537, 545, 480, 568, 581, 545, 551, 569, 498, 521, 591, 549, 569, 553, 531, 543, 411, 491, 586, 628, 713, 720, 568, 540, 523, 574, 605, 534, 675, 641, 498, 581, 549, 584, 569, 620, 663, 748, 614, 630, 630, 626, 694, 622, 729, 693, 584, 673, 721, 612, 573, 609, 651, 652, 612, 656, 622, 557, 558, 617, 664, 616, 624, 677, 646, 563, 526, 760, 839, 735, 634, 802, 848, 684, 582, 643, 633, 588, 633, 774, 784, 654, 569, 596, 609, 633, 520, 580, 618, 640, 593, 510, 526, 456, 481, 479, 520, 517, 517, 522, 453, 484, 543, 573, 539, 502, 574, 620, 487, 632, 671, 542, 545, 602, 652, 511, 464, 595, 620, 517, 519, 611, 611, 508, 465, 507, 487, 444, 490, 544, 567, 615, 577, 548, 552, 610, 529, 428, 541, 480, 546, 600, 582, 585, 470, 496, 483, 501, 518, 463, 540, 549, 510, 582, 545, 565, 627, 528, 593, 565, 500, 531, 554, 623, 570, 522, 606, 597, 451, 419, 466, 549, 558, 547, 630, 588, 520, 495, 430, 564, 616, 577, 562, 600, 499, 410, 452, 502, 580, 533, 482, 613, 583, 508, 526, 577, 620, 585, 564, 699, 670, 594, 580, 657, 552, 596, 605, 710, 705, 598, 672, 584, 543, 544, 546, 596, 572, 597, 617, 581, 583, 591, 664, 549, 501, 539, 515, 678, 573, 621, 718, 620, 583, 596, 633, 901, 695, 692, 769, 631, 592, 695, 864, 832, 1527, 1644, 953, 651, 971, 1156, 926, 905, 2955, 3570, 2050, 719, 1518, 2489, 2074, 2357, 6537, 6550, 2814, 1534, 3212, 4881, 3033, 5881, 14595, 13740, 5038, 3456, 6464, 9546, 5211, 6689, 16397, 15525, 5861, 3974, 6928, 10122, 5463, 4158, 9099, 8888, 4044, 2661, 3628, 4981, 2870, 1603, 3250, 3330, 1773, 1234, 1195, 1752, 1378, 751, 1291, 1457, 932, 709, 785, 1000, 948, 610, 686, 857, 766, 632, 680, 665, 676, 579, 659, 717, 584, 579, 578, 536, 604, 666, 747, 662, 560, 595, 620, 526, 547, 727, 703, 564, 583, 692, 714, 598, 600, 675, 705, 636, 582, 685, 732, 615, 648, 555, 664, 717, 680, 597, 625, 640, 593, 558, 678, 704, 692, 620, 620, 644, 592, 597, 565, 554, 585, 579, 574, 543, 609, 596, 594, 689, 612, 545, 601, 593, 643, 585, 569, 764, 708, 571, 571, 620, 660, 682, 664, 650, 694, 652, 615, 584, 608, 716, 618, 576, 566, 580, 662, 602, 670, 597, 636, 607, 509, 573, 690, 650, 611, 541, 937, 1029, 648, 630, 890, 783, 555, 624, 1067, 1098, 695, 737, 847, 722, 561, 628, 683, 737, 657, 695, 767, 702, 603, 625, 641, 565, 588, 608, 578, 637, 583, 610, 644, 652, 551, 550, 554, 552, 584, 519, 586, 662, 525, 509, 631, 582, 527, 538, 502, 544, 578, 577, 574, 562, 583, 673, 605, 635, 637, 660, 611, 569, 624, 469, 529, 682, 624, 580, 547, 556, 557, 543, 550, 612, 591, 558, 527, 515, 567, 646, 578, 576, 666, 733, 703, 608, 610, 624, 653, 561, 620, 662, 702, 595, 549, 678, 668, 649, 600, 570, 596, 567, 672, 740, 706, 708, 664, 663, 682, 680, 797, 650, 638, 642, 606, 617, 708, 645, 628, 658, 642, 676, 614, 614, 695, 629, 688, 554, 673, 728, 637, 534, 566, 560, 607, 512, 523, 612, 561, 516, 567, 477, 543, 719, 637, 679, 791, 714, 664, 583, 630, 728, 624, 631, 751, 671, 637, 649, 598, 578, 637, 619, 637, 581, 559, 636, 565, 619, 614, 642, 585, 519, 569, 679, 677, 625, 641, 641, 655, 548, 567, 667, 664, 616, 634, 707, 641, 558, 590, 760, 724, 566, 645, 706, 638, 513, 623, 707, 604, 599, 680, 581, 622, 667, 701, 698, 608, 679, 628, 498, 624, 728, 599, 586, 605, 568, 583, 547, 614, 658, 635, 588, 568, 498, 518, 520, 521, 498, 544, 540, 522, 503, 540, 591, 653, 535, 526, 567, 520, 523, 521, 476, 528, 458, 510, 538, 509, 573, 596, 534, 494, 542, 628, 576, 437, 558, 535, 514, 489, 560, 568, 527, 538, 525, 608, 616, 489, 493, 570, 617, 566, 541, 601, 616, 544, 496, 577, 632, 581, 578, 578, 588, 553, 556, 594, 563, 558, 597, 580, 610, 584, 603, 643, 557, 579, 689, 598, 574, 589, 588, 653, 593, 646, 691, 614, 599, 585, 621, 604, 525, 542, 611, 653, 586, 531, 541, 586, 515, 498, 526, 591, 469, 535, 466, 547, 549, 474, 625, 594, 546, 603, 625, 649, 616, 567, 697, 618, 611, 733, 711, 602, 558, 695, 610, 535, 606, 636, 643, 581, 596, 666, 617, 525, 562, 617, 582, 585, 533, 624, 709, 632, 542, 663, 767, 659, 525, 662, 524, 623, 571, 580, 693, 640, 690, 675, 498, 517, 446, 571, 577, 547, 650, 650, 539, 507, 553, 601, 532, 513, 588, 549, 535, 545, 535, 579, 533, 527, 542, 519, 554, 516, 540, 501, 488, 536, 521, 489, 602, 637, 567, 513, 541, 529, 559, 578, 628, 602, 550, 603, 604, 571, 511, 521, 648, 642, 548, 599, 557, 610, 594, 521, 524, 606, 601, 539, 568, 634, 684, 646, 471, 630, 647, 527, 566, 636, 706, 556, 487, 461, 616, 594, 420, 466, 571, 590, 502, 559, 651, 541, 433, 584, 627, 555, 472, 480, 502, 472, 411, 479, 514, 501, 423, 523, 509, 419, 457, 484, 499, 405, 383, 404, 451, 460, 484, 431, 511, 551, 513, 492, 557, 456, 422, 544, 520, 620, 449, 484, 532, 398, 402, 471, 494, 486, 376, 374, 404, 384, 379, 378, 393, 374]"
-0.1656600534915924,0.05360336974263191,-0.1496889889240265,0.11999830603599548,0.16704866290092468,-0.47870561480522156,0.03706803917884827,-0.41218066215515137,-1.0268211364746094,17.25,-0.12350344657897949,-0.5259990692138672,19.0,0.11911129951477051,-0.4448890686035156,17.25,0.13313031196594238,-0.2281665802001953,16.0,0.17876362800598145,-0.05650520324707031,19.25,"[620, 641, 594, 492, 584, 490, 594, 641, 549, 599, 659, 584, 605, 569, 639, 597, 512, 535, 607, 596, 604, 591, 604, 585, 577, 581, 541, 537, 591, 554, 597, 617, 530, 522, 458, 579, 519, 530, 590, 525, 587, 520, 504, 500, 520, 523, 483, 479, 533, 522, 623, 576, 539, 559, 486, 503, 518, 537, 600, 582, 571, 533, 518, 509, 488, 593, 580, 521, 605, 609, 536, 539, 542, 519, 533, 633, 588, 516, 534, 570, 523, 501, 424, 437, 487, 481, 448, 461, 536, 560, 559, 576, 496, 510, 581, 565, 435, 526, 617, 584, 562, 555, 484, 459, 562, 550, 536, 587, 595, 523, 514, 625, 527, 460, 450, 520, 579, 516, 515, 601, 565, 506, 483, 556, 554, 446, 467, 563, 601, 724, 680, 547, 587, 592, 544, 578, 738, 844, 790, 602, 549, 684, 652, 632, 647, 623, 604, 574, 548, 672, 533, 522, 600, 554, 534, 449, 521, 637, 534, 540, 576, 606, 557, 599, 612, 579, 519, 531, 596, 704, 710, 539, 588, 636, 623, 605, 677, 715, 655, 588, 600, 581, 583, 506, 570, 534, 531, 612, 572, 487, 452, 550, 478, 495, 535, 529, 520, 501, 491, 491, 521, 552, 641, 576, 558, 586, 512, 497, 597, 617, 605, 541, 538, 605, 605, 555, 595, 612, 575, 529, 659, 656, 528, 574, 531, 644, 576, 498, 527, 609, 647, 624, 556, 577, 461, 496, 434, 514, 637, 631, 567, 531, 507, 489, 499, 510, 550, 608, 540, 557, 493, 502, 515, 497, 574, 516, 462, 514, 487, 497, 483, 477, 498, 489, 529, 554, 574, 513, 526, 576, 619, 624, 495, 408, 481, 584, 548, 472, 658, 682, 510, 457, 408, 513, 476, 475, 522, 543, 515, 495, 499, 516, 515, 499, 462, 494, 517, 613, 595, 530, 565, 531, 579, 545, 593, 609, 600, 505, 500, 560, 569, 584, 585, 585, 637, 571, 516, 588, 605, 577, 518, 543, 541, 543, 565, 518, 494, 498, 734, 506, 579, 721, 642, 572, 559, 717, 1346, 664, 805, 1157, 972, 656, 828, 1386, 1036, 861, 807, 917, 803, 773, 791, 1014, 861, 1810, 2292, 1570, 895, 904, 1609, 1686, 1685, 4501, 4857, 2491, 1390, 1839, 2965, 2638, 1679, 5786, 6406, 3133, 1306, 2421, 3742, 2938, 1497, 3809, 4239, 2416, 1047, 2110, 2959, 2178, 1510, 3017, 4472, 3326, 1134, 2124, 2337, 1731, 1338, 3851, 5342, 3519, 1133, 2580, 2678, 2211, 1068, 2946, 3565, 2099, 939, 1823, 1760, 1539, 824, 1231, 1554, 1201, 812, 900, 881, 930, 621, 741, 797, 796, 716, 681, 683, 697, 652, 687, 682, 654, 753, 762, 706, 622, 628, 686, 661, 537, 609, 646, 566, 510, 590, 636, 724, 595, 591, 635, 550, 530, 701, 665, 571, 608, 579, 544, 534, 600, 704, 618, 508, 614, 629, 597, 549, 547, 589, 604, 561, 713, 618, 515, 556, 565, 581, 685, 645, 574, 563, 603, 612, 495, 534, 508, 534, 530, 492, 488, 465, 484, 581, 540, 494, 507, 494, 495, 462, 510, 507, 583, 545, 573, 550, 612, 660, 527, 517, 542, 507, 576, 559, 570, 603, 553, 483, 559, 487, 490, 534, 528, 527, 444, 559, 618, 562, 558, 589, 591, 570, 471, 655, 627, 580, 637, 643, 660, 639, 618, 586, 564, 485, 547, 577, 588, 556, 560, 559, 485, 488, 571, 596, 563, 530, 562, 610, 571, 640, 634, 665, 656, 549, 547, 633, 626, 692, 685, 635, 597, 565, 603, 687, 770, 721, 561, 610, 621, 587, 675, 551, 674, 724, 611, 528, 561, 580, 563, 527, 616, 637, 608, 601, 551, 603, 600, 512, 579, 682, 714, 653, 561, 671, 653, 529, 448, 587, 588, 545, 573, 604, 603, 544, 520, 565, 615, 515, 513, 603, 642, 711, 670, 647, 660, 658, 622, 599, 658, 728, 596, 545, 592, 677, 597, 526, 649, 714, 585, 555, 544, 612, 612, 624, 736, 512, 541, 592, 541, 418, 514, 560, 529, 543, 575, 615, 595, 587, 576, 516, 525, 476, 537, 502, 509, 572, 581, 534, 503, 547, 689, 647, 548, 621, 677, 728, 595, 558, 587, 636, 587, 570, 595, 619, 614, 667, 617, 652, 617, 648, 572, 564, 725, 530, 531, 605, 557, 577, 572, 573, 550, 560, 631, 652, 524, 566, 700, 691, 604, 616, 617, 547, 530, 574, 602, 586, 533, 643, 677, 621, 590, 643, 673, 621, 528, 636, 650, 582, 589, 659, 666, 640, 576, 548, 616, 675, 601, 568, 669, 697, 603, 519, 627, 709, 620, 554, 727, 745, 589, 636, 684, 732, 673, 598, 677, 714, 617, 630, 567, 545, 579, 591, 572, 576, 565, 606, 692, 630, 515, 581, 638, 666, 528, 641, 625, 583, 520, 601, 538, 524, 588, 554, 513, 532, 530, 473, 468, 486, 548, 561, 626, 599, 563, 542, 511, 486, 454, 518, 629, 688, 664, 592, 589, 590, 533, 517, 558, 653, 728, 631, 559, 593, 564, 532, 551, 604, 601, 575, 537, 503, 574, 621, 637, 639, 527, 558, 601, 551, 571, 680, 547, 564, 591, 656, 607, 563, 668, 599, 512, 629, 696, 583, 558, 565, 624, 711, 730, 788, 804, 696, 711, 678, 592, 562, 613, 748, 717, 644, 635, 683, 639, 599, 628, 631, 584, 553, 603, 676, 650, 573, 583, 610, 554, 532, 545, 663, 680, 591, 728, 739, 597, 662, 687, 764, 715, 683, 821, 851, 660, 667, 726, 783, 779, 589, 789, 781, 590, 631, 722, 618, 517, 508, 648, 674, 576, 576, 553, 651, 583, 594, 627, 665, 701, 610, 600, 749, 689, 502, 561, 551, 592, 647, 608, 606, 510, 517, 627, 492, 575, 559, 579, 640, 470, 526, 559, 541, 549, 533, 604, 699, 649, 612, 558, 584, 603, 602, 579, 623, 612, 509, 467, 540, 534, 560, 469, 455, 585, 556, 613, 620, 518, 566, 595, 535, 538, 524, 566, 605, 531, 518, 614, 606, 539, 485, 479, 526, 567, 498, 585, 587, 480, 455, 454, 512, 505, 505, 525, 494, 478, 469, 447, 432, 422, 489, 462, 433, 401, 447, 431, 432, 479, 469, 509, 493, 436, 489, 464, 514, 513, 425, 418, 552, 569, 481, 405, 425, 426, 447, 447, 427, 492, 492, 451, 423, 453, 479, 451, 403, 468]"
-0.179796040058136,0.004445478320121765,-0.08019038289785385,0.05215618759393692,-0.014847919344902039,-0.20166513323783875,-0.06338657438755035,-0.03522312641143799,0.42586326599121094,17.0,-0.017770886421203613,0.43129920959472656,28.25,0.008693575859069824,-0.32515525817871094,31.5,0.0513228178024292,-0.1640796661376953,27.75,0.09280765056610107,0.11129379272460938,21.25,"[601, 637, 569, 538, 607, 539, 569, 635, 605, 576, 577, 563, 690, 620, 598, 667, 549, 612, 641, 536, 538, 603, 620, 551, 510, 518, 469, 438, 407, 481, 521, 513, 465, 469, 518, 497, 459, 503, 496, 460, 550, 556, 499, 529, 511, 595, 538, 447, 564, 560, 529, 590, 581, 567, 469, 474, 501, 564, 534, 467, 572, 615, 538, 430, 528, 565, 503, 470, 568, 568, 556, 496, 552, 585, 574, 558, 549, 510, 556, 521, 503, 442, 503, 522, 507, 481, 484, 498, 440, 505, 570, 585, 506, 479, 530, 495, 554, 487, 455, 492, 504, 452, 483, 591, 593, 510, 478, 527, 507, 381, 540, 686, 614, 614, 547, 561, 487, 527, 520, 552, 623, 592, 548, 529, 512, 509, 453, 461, 492, 575, 538, 494, 541, 527, 482, 410, 512, 528, 619, 545, 527, 583, 539, 535, 569, 552, 579, 482, 583, 635, 587, 626, 600, 551, 560, 533, 628, 642, 526, 565, 503, 587, 583, 457, 606, 716, 634, 529, 580, 666, 602, 534, 640, 668, 654, 609, 620, 622, 520, 564, 696, 704, 617, 561, 695, 614, 494, 659, 724, 623, 576, 647, 626, 531, 538, 578, 597, 497, 495, 659, 434, 507, 554, 578, 536, 519, 501, 511, 563, 571, 546, 550, 571, 561, 637, 636, 541, 612, 589, 543, 558, 629, 622, 579, 497, 614, 629, 546, 597, 622, 539, 470, 570, 605, 711, 633, 581, 513, 584, 668, 522, 601, 529, 432, 515, 547, 549, 587, 704, 646, 582, 539, 631, 600, 554, 593, 637, 501, 461, 513, 516, 504, 460, 586, 643, 558, 525, 566, 533, 593, 589, 623, 604, 623, 607, 593, 600, 619, 574, 542, 566, 546, 522, 595, 642, 635, 630, 608, 543, 580, 538, 579, 564, 650, 579, 516, 685, 637, 668, 603, 592, 733, 666, 567, 628, 649, 648, 604, 558, 545, 574, 585, 638, 658, 587, 529, 487, 500, 551, 593, 454, 519, 491, 435, 518, 518, 534, 553, 644, 606, 594, 486, 552, 655, 643, 635, 1425, 959, 794, 829, 738, 718, 907, 1399, 1763, 2331, 2016, 1123, 717, 1415, 1464, 1479, 2006, 3514, 3555, 1964, 995, 2271, 2096, 1119, 3729, 3315, 3195, 3167, 1760, 3232, 4141, 3838, 6198, 14858, 16891, 9439, 2740, 8452, 15383, 13055, 5233, 19356, 22276, 11769, 2508, 9909, 18720, 15341, 2591, 12051, 13924, 7255, 1610, 5619, 10930, 8886, 1296, 5470, 6524, 3494, 1119, 2540, 4989, 4300, 1154, 2022, 2789, 1826, 856, 936, 2026, 2282, 878, 1031, 1265, 910, 650, 698, 1047, 1184, 587, 674, 698, 681, 612, 587, 670, 627, 590, 626, 623, 676, 675, 613, 577, 557, 524, 621, 624, 636, 625, 652, 631, 557, 639, 604, 523, 639, 680, 667, 545, 589, 572, 610, 581, 592, 633, 676, 581, 534, 554, 535, 575, 572, 572, 602, 639, 641, 572, 624, 583, 557, 561, 611, 674, 583, 473, 576, 529, 531, 533, 475, 655, 635, 449, 454, 530, 592, 527, 517, 610, 586, 471, 430, 554, 587, 574, 530, 511, 572, 647, 535, 622, 581, 592, 656, 584, 618, 838, 931, 801, 602, 670, 817, 681, 542, 990, 1391, 1449, 929, 824, 1195, 1038, 706, 945, 1328, 1505, 1086, 876, 1235, 1081, 684, 885, 891, 866, 928, 853, 772, 695, 668, 738, 665, 554, 672, 762, 634, 539, 677, 620, 546, 523, 588, 600, 583, 493, 583, 685, 621, 577, 610, 658, 572, 556, 640, 660, 594, 469, 587, 751, 634, 502, 589, 630, 626, 599, 621, 739, 701, 533, 555, 490, 583, 662, 623, 580, 606, 615, 489, 576, 653, 688, 553, 476, 563, 595, 551, 595, 705, 642, 507, 503, 616, 655, 587, 535, 642, 653, 582, 629, 583, 687, 636, 443, 600, 592, 562, 566, 562, 558, 461, 532, 622, 699, 661, 591, 664, 565, 487, 547, 526, 702, 718, 513, 671, 723, 644, 538, 557, 673, 636, 514, 649, 785, 694, 654, 560, 555, 600, 684, 643, 632, 674, 689, 692, 664, 759, 769, 668, 593, 654, 572, 658, 658, 732, 741, 656, 717, 610, 624, 509, 696, 729, 662, 714, 769, 722, 571, 615, 719, 686, 602, 696, 688, 603, 549, 538, 573, 577, 645, 679, 554, 528, 523, 570, 628, 532, 515, 544, 572, 583, 580, 551, 645, 553, 499, 572, 618, 594, 519, 440, 506, 563, 574, 476, 464, 524, 562, 551, 592, 710, 637, 483, 534, 598, 566, 588, 583, 600, 570, 505, 577, 629, 553, 487, 615, 642, 606, 619, 597, 633, 509, 530, 689, 611, 499, 605, 597, 560, 620, 531, 669, 640, 638, 703, 605, 619, 558, 568, 610, 588, 603, 626, 651, 563, 522, 608, 642, 608, 519, 535, 621, 607, 615, 658, 621, 604, 580, 554, 634, 627, 618, 620, 539, 668, 650, 563, 492, 585, 555, 551, 568, 552, 568, 662, 598, 593, 515, 590, 654, 576, 590, 590, 641, 623, 517, 690, 660, 556, 609, 589, 622, 587, 493, 602, 620, 617, 616, 591, 603, 541, 489, 607, 636, 549, 485, 547, 590, 540, 642, 649, 594, 599, 506, 457, 583, 600, 707, 744, 644, 622, 589, 558, 673, 660, 737, 743, 554, 629, 669, 591, 726, 669, 815, 686, 536, 703, 671, 557, 520, 634, 662, 641, 625, 655, 657, 580, 620, 635, 602, 553, 635, 711, 587, 480, 543, 563, 599, 704, 852, 806, 576, 626, 716, 628, 630, 685, 720, 636, 644, 674, 599, 618, 618, 604, 678, 641, 508, 571, 550, 610, 570, 529, 603, 613, 588, 587, 607, 623, 602, 607, 567, 576, 611, 618, 587, 551, 693, 713, 772, 716, 611, 588, 622, 678, 611, 597, 628, 623, 602, 584, 611, 662, 569, 565, 565, 509, 477, 581, 670, 622, 617, 630, 621, 619, 542, 587, 571, 592, 523, 604, 533, 523, 526, 499, 514, 479, 486, 539, 654, 616, 533, 601, 622, 516, 564, 534, 523, 472, 478, 619, 617, 544, 575, 570, 581, 488, 612, 668, 544, 605, 497, 538, 526, 472, 503, 482, 425, 475, 453, 516, 516, 478, 437, 394, 476, 481, 338, 360, 338, 354, 390, 387, 456, 420, 446, 422, 425, 536, 490, 400, 486, 484, 459, 434, 471, 530, 471, 504, 589, 501, 479, 421, 412, 439, 446, 443, 454, 449]"
-0.17558804154396057,0.05444362387061119,0.06392883509397507,0.036687999963760376,-0.019993305206298828,0.1063101589679718,-0.08712228387594223,-0.3075237274169922,0.37751197814941406,16.75,-0.1767749786376953,0.7133960723876953,18.5,-0.13757896423339844,0.2719402313232422,20.0,0.04509735107421875,-0.3291606903076172,18.0,0.04724311828613281,-0.49080848693847656,20.75,"[512, 546, 639, 617, 630, 616, 638, 548, 551, 551, 552, 541, 664, 712, 614, 567, 579, 542, 528, 480, 598, 643, 534, 536, 506, 450, 451, 504, 453, 538, 566, 505, 537, 539, 499, 556, 570, 479, 488, 467, 511, 513, 470, 519, 568, 523, 532, 517, 574, 621, 541, 524, 566, 627, 583, 544, 579, 542, 551, 538, 493, 570, 592, 592, 474, 529, 574, 489, 488, 513, 553, 528, 514, 512, 499, 524, 573, 578, 524, 466, 519, 550, 573, 523, 610, 544, 588, 579, 444, 476, 560, 646, 629, 482, 609, 618, 461, 424, 491, 591, 580, 409, 449, 561, 524, 481, 521, 580, 522, 514, 543, 585, 560, 465, 442, 519, 552, 549, 505, 555, 546, 571, 529, 514, 615, 623, 542, 474, 451, 478, 517, 503, 448, 509, 572, 459, 620, 561, 529, 598, 615, 644, 585, 543, 614, 561, 502, 594, 661, 612, 561, 550, 640, 514, 519, 616, 611, 521, 449, 589, 629, 496, 495, 594, 616, 510, 463, 564, 523, 590, 519, 482, 474, 509, 476, 435, 574, 654, 537, 460, 541, 569, 503, 443, 560, 560, 468, 486, 524, 523, 479, 470, 596, 532, 545, 644, 575, 544, 625, 591, 623, 607, 647, 654, 603, 554, 652, 696, 536, 613, 603, 531, 628, 654, 604, 602, 607, 590, 578, 514, 578, 581, 523, 582, 570, 521, 504, 518, 504, 508, 503, 492, 532, 541, 528, 499, 457, 568, 619, 518, 570, 504, 489, 590, 534, 552, 573, 583, 499, 470, 520, 566, 491, 484, 529, 479, 547, 566, 547, 529, 557, 576, 481, 534, 578, 559, 487, 491, 539, 587, 454, 483, 587, 583, 537, 537, 544, 577, 515, 505, 574, 490, 488, 554, 543, 550, 534, 516, 550, 556, 432, 465, 543, 509, 483, 491, 559, 545, 482, 555, 630, 553, 513, 539, 586, 541, 502, 499, 576, 580, 526, 560, 529, 561, 483, 549, 573, 584, 552, 469, 577, 629, 557, 620, 589, 576, 565, 513, 748, 632, 540, 638, 540, 442, 542, 658, 1266, 888, 649, 681, 642, 524, 700, 1127, 1105, 1056, 945, 671, 666, 786, 985, 1072, 716, 960, 1076, 841, 608, 892, 1022, 812, 1257, 1432, 1735, 1257, 874, 885, 1387, 1626, 2388, 1722, 3031, 2690, 1340, 1133, 2690, 3657, 2716, 3242, 5589, 4160, 1404, 2357, 5464, 6010, 1321, 3387, 4521, 2842, 864, 2594, 4802, 4314, 1120, 1846, 2046, 1319, 946, 1604, 1941, 1176, 1282, 1074, 1670, 1760, 990, 993, 1108, 1179, 905, 772, 985, 1158, 789, 659, 995, 942, 749, 885, 917, 826, 680, 605, 719, 688, 612, 663, 798, 767, 614, 619, 649, 639, 576, 565, 639, 715, 639, 620, 676, 656, 555, 598, 677, 700, 606, 543, 599, 659, 635, 570, 656, 618, 605, 533, 550, 639, 623, 550, 558, 555, 571, 497, 536, 632, 675, 637, 513, 576, 616, 535, 564, 614, 678, 638, 536, 563, 574, 558, 482, 502, 598, 617, 630, 584, 582, 666, 575, 504, 628, 671, 579, 514, 608, 604, 573, 550, 583, 627, 679, 597, 596, 650, 633, 581, 706, 652, 621, 633, 658, 582, 574, 683, 652, 692, 734, 628, 661, 677, 592, 641, 653, 912, 935, 771, 738, 822, 740, 639, 678, 882, 731, 609, 791, 778, 610, 582, 584, 564, 592, 644, 629, 588, 553, 558, 583, 596, 567, 589, 549, 565, 508, 510, 711, 672, 562, 564, 667, 573, 450, 605, 690, 606, 655, 817, 865, 671, 599, 669, 606, 554, 670, 754, 731, 862, 787, 508, 733, 725, 719, 742, 583, 787, 877, 716, 652, 675, 688, 757, 586, 618, 733, 660, 525, 566, 606, 661, 584, 650, 636, 512, 519, 654, 649, 612, 586, 636, 725, 596, 671, 721, 655, 667, 628, 651, 693, 684, 662, 568, 603, 613, 616, 578, 555, 644, 611, 647, 610, 567, 658, 746, 597, 555, 545, 643, 506, 600, 724, 719, 642, 501, 511, 606, 493, 516, 599, 611, 567, 465, 613, 572, 455, 458, 469, 584, 546, 515, 624, 578, 472, 507, 548, 653, 600, 568, 648, 637, 584, 499, 559, 671, 623, 524, 605, 628, 581, 598, 573, 599, 575, 552, 586, 545, 530, 626, 644, 547, 490, 557, 594, 627, 656, 692, 636, 586, 628, 583, 557, 615, 635, 637, 529, 616, 685, 638, 679, 674, 585, 564, 556, 638, 652, 629, 642, 705, 651, 638, 608, 701, 728, 658, 624, 676, 661, 607, 591, 635, 660, 578, 621, 658, 654, 627, 555, 553, 588, 618, 573, 603, 568, 574, 611, 543, 515, 558, 617, 598, 542, 478, 554, 578, 636, 631, 563, 521, 509, 527, 538, 554, 532, 575, 518, 572, 602, 598, 566, 594, 614, 631, 555, 600, 623, 483, 523, 656, 596, 523, 559, 613, 544, 574, 595, 626, 560, 513, 579, 539, 520, 560, 551, 535, 516, 548, 578, 574, 630, 617, 515, 449, 513, 529, 589, 732, 659, 603, 539, 535, 551, 487, 736, 789, 731, 550, 606, 650, 564, 608, 583, 622, 602, 518, 472, 548, 575, 579, 654, 607, 592, 566, 564, 562, 675, 661, 741, 561, 634, 642, 594, 566, 628, 799, 759, 637, 646, 639, 623, 625, 651, 854, 771, 675, 634, 676, 695, 552, 699, 826, 719, 733, 646, 610, 618, 544, 567, 639, 806, 684, 621, 636, 670, 616, 502, 711, 796, 749, 920, 838, 760, 789, 860, 904, 709, 774, 986, 912, 666, 753, 1039, 995, 622, 714, 846, 775, 653, 629, 926, 900, 568, 615, 674, 642, 525, 537, 593, 590, 616, 569, 556, 573, 572, 537, 502, 548, 708, 591, 462, 556, 553, 509, 537, 630, 686, 506, 475, 603, 510, 447, 497, 637, 597, 427, 450, 576, 608, 583, 473, 548, 630, 515, 535, 636, 667, 585, 526, 644, 506, 552, 664, 616, 529, 533, 574, 635, 476, 480, 532, 502, 468, 467, 482, 504, 460, 492, 466, 415, 407, 469, 483, 431, 535, 486, 426, 477, 528, 543, 467, 510, 576, 444, 457, 532, 521, 473, 474, 552, 544, 518, 489, 489, 435, 473, 450, 473, 408, 495, 513, 409, 398, 407, 392, 397, 413, 435, 439, 390, 420, 431, 401, 396, 413, 348, 336, 410, 424, 395, 345, 394, 417, 421, 390, 376, 371, 372, 409, 418]"
-0.17220468819141388,0.14736592769622803,0.11711771786212921,0.02733570523560047,0.1061680018901825,0.1597467064857483,-0.08751024305820465,-0.12270021438598633,0.3307342529296875,16.75,-0.059900760650634766,0.0,20.25,-0.045595645904541016,0.3325939178466797,20.5,0.05153608322143555,0.2235889434814453,16.5,0.07585477828979492,0.0,15.25,"[727, 751, 680, 677, 711, 682, 683, 749, 686, 692, 611, 668, 701, 762, 814, 738, 594, 628, 552, 519, 528, 664, 668, 562, 497, 521, 486, 436, 487, 556, 566, 454, 424, 500, 492, 414, 511, 570, 521, 462, 483, 470, 479, 431, 484, 556, 555, 521, 513, 470, 486, 463, 478, 574, 500, 476, 500, 546, 529, 569, 498, 458, 538, 529, 511, 527, 452, 458, 433, 445, 478, 489, 469, 512, 562, 452, 461, 468, 516, 593, 511, 556, 523, 584, 551, 491, 529, 535, 562, 506, 538, 563, 532, 468, 538, 618, 485, 552, 576, 605, 618, 542, 525, 498, 490, 597, 626, 649, 604, 512, 522, 485, 540, 540, 564, 525, 485, 535, 550, 515, 537, 477, 548, 599, 614, 592, 544, 539, 624, 552, 563, 605, 651, 604, 533, 601, 600, 618, 612, 646, 581, 612, 644, 556, 627, 530, 501, 628, 548, 499, 490, 604, 574, 646, 611, 548, 648, 673, 562, 521, 535, 527, 537, 611, 607, 494, 568, 587, 544, 531, 584, 697, 641, 435, 596, 663, 517, 616, 707, 574, 588, 587, 631, 637, 488, 578, 591, 491, 582, 686, 620, 474, 481, 555, 622, 601, 568, 656, 638, 520, 498, 666, 641, 539, 587, 680, 674, 558, 542, 621, 592, 547, 547, 578, 589, 522, 595, 617, 609, 622, 576, 570, 581, 509, 542, 469, 557, 546, 501, 492, 513, 538, 569, 623, 574, 544, 596, 591, 543, 539, 613, 660, 586, 533, 553, 585, 604, 580, 614, 595, 563, 531, 591, 623, 643, 621, 541, 526, 436, 541, 551, 463, 497, 506, 605, 604, 454, 566, 629, 522, 491, 517, 471, 514, 483, 443, 549, 570, 500, 502, 478, 553, 525, 462, 604, 632, 496, 440, 538, 686, 622, 568, 626, 589, 547, 479, 519, 608, 588, 536, 566, 491, 532, 536, 497, 555, 553, 499, 545, 534, 528, 545, 599, 515, 555, 610, 545, 485, 572, 684, 572, 497, 498, 568, 530, 520, 556, 606, 924, 578, 587, 776, 660, 602, 604, 814, 1501, 934, 717, 1034, 915, 715, 746, 1348, 1519, 2573, 2465, 1237, 1106, 1633, 1249, 730, 1676, 4412, 5498, 3231, 1419, 2589, 2379, 2367, 1503, 3178, 4231, 2776, 1060, 1936, 1985, 2100, 1382, 1246, 1116, 860, 811, 894, 965, 1192, 2124, 2941, 3924, 2563, 1285, 1940, 4139, 4280, 2041, 4275, 5410, 3133, 1272, 3064, 6257, 5777, 1098, 3706, 4032, 2243, 911, 2156, 3990, 3086, 1627, 3085, 3388, 2300, 1294, 1404, 1972, 1528, 1324, 2418, 2731, 1857, 1041, 1213, 1372, 1300, 680, 1102, 1363, 1029, 587, 717, 842, 851, 530, 703, 766, 666, 520, 599, 554, 529, 473, 595, 669, 615, 551, 519, 574, 507, 561, 518, 440, 552, 627, 571, 532, 536, 551, 482, 551, 681, 698, 616, 599, 639, 654, 497, 663, 758, 613, 541, 607, 736, 595, 505, 597, 677, 577, 617, 627, 593, 599, 572, 585, 589, 545, 667, 650, 558, 540, 635, 641, 610, 569, 560, 554, 522, 535, 627, 684, 599, 594, 631, 671, 627, 537, 539, 576, 550, 542, 526, 661, 707, 544, 551, 534, 617, 549, 606, 664, 647, 615, 649, 596, 649, 626, 582, 569, 589, 682, 809, 693, 647, 669, 666, 672, 586, 645, 619, 650, 638, 580, 632, 607, 633, 586, 572, 712, 595, 592, 552, 519, 581, 607, 665, 670, 502, 550, 649, 597, 522, 612, 660, 727, 532, 540, 644, 641, 601, 708, 685, 752, 686, 649, 763, 770, 663, 725, 755, 844, 757, 715, 843, 759, 692, 657, 725, 698, 683, 670, 679, 615, 653, 639, 672, 615, 532, 549, 620, 590, 610, 647, 605, 592, 587, 620, 535, 605, 672, 664, 616, 585, 623, 763, 703, 624, 684, 561, 607, 584, 528, 586, 631, 588, 617, 556, 612, 527, 526, 543, 472, 607, 622, 555, 657, 703, 635, 617, 557, 628, 576, 602, 683, 694, 669, 612, 598, 566, 512, 680, 681, 771, 699, 686, 680, 547, 607, 524, 569, 734, 741, 647, 597, 624, 646, 570, 559, 681, 621, 603, 604, 522, 566, 632, 573, 740, 692, 670, 659, 570, 739, 591, 609, 754, 701, 643, 620, 598, 602, 642, 651, 605, 588, 612, 661, 606, 557, 559, 614, 613, 503, 465, 550, 517, 513, 615, 640, 636, 603, 528, 582, 535, 512, 688, 656, 575, 637, 644, 662, 562, 562, 594, 606, 594, 651, 661, 709, 696, 553, 561, 480, 542, 609, 605, 605, 639, 637, 700, 605, 520, 558, 698, 689, 592, 695, 533, 561, 594, 565, 686, 666, 556, 610, 593, 505, 586, 646, 630, 582, 548, 674, 593, 506, 552, 599, 617, 537, 521, 666, 557, 499, 532, 618, 576, 495, 524, 603, 567, 530, 565, 567, 553, 569, 535, 593, 575, 635, 675, 560, 598, 654, 574, 538, 592, 648, 653, 529, 569, 634, 545, 593, 609, 601, 653, 591, 598, 646, 565, 598, 580, 621, 619, 615, 596, 600, 614, 603, 572, 597, 629, 604, 566, 574, 631, 613, 566, 597, 562, 600, 629, 714, 656, 532, 578, 651, 598, 662, 633, 648, 637, 553, 619, 584, 519, 643, 675, 670, 576, 566, 646, 535, 632, 627, 614, 627, 631, 715, 634, 667, 710, 704, 563, 583, 637, 562, 571, 627, 649, 639, 571, 586, 631, 566, 582, 722, 753, 685, 604, 685, 781, 736, 585, 796, 857, 704, 558, 698, 847, 777, 539, 557, 641, 640, 600, 557, 630, 603, 587, 521, 643, 553, 457, 496, 589, 635, 537, 493, 644, 605, 514, 485, 532, 574, 488, 656, 784, 604, 466, 499, 582, 543, 561, 649, 644, 660, 596, 505, 570, 543, 593, 663, 704, 700, 591, 462, 493, 506, 545, 599, 650, 589, 496, 537, 573, 533, 554, 522, 493, 433, 489, 537, 413, 445, 426, 424, 483, 457, 438, 470, 455, 493, 513, 486, 478, 518, 514, 470, 451, 525, 451, 464, 499, 477, 465, 506, 487, 439, 435, 424, 489, 502, 505, 554, 504, 493, 408, 487, 503, 474, 492, 472, 429, 438, 445, 465, 527, 458, 451, 401, 431, 456, 388, 416, 416, 389, 336, 377, 426, 382, 417, 442, 480, 429, 407, 380, 441, 445, 437, 433, 427, 373, 361, 366, 318, 395, 418, 406, 373, 415, 432, 415, 373, 424]"
-0.3437284231185913,-0.19421756267547607,-0.07100610435009003,-0.30070093274116516,-0.18141500651836395,-0.17672377824783325,-0.18041278421878815,-1.3657742738723755,1.5186309814453125,21.75,-0.3785783052444458,-0.9984970092773438,19.25,-0.249975323677063,-0.5385875701904297,20.25,0.013810992240905762,-0.6232738494873047,21.5,0.15271365642547607,-0.2288818359375,19.75,"[651, 675, 610, 609, 733, 609, 611, 675, 574, 653, 617, 613, 642, 636, 629, 596, 564, 635, 596, 500, 552, 601, 584, 511, 526, 526, 518, 453, 378, 452, 481, 427, 514, 468, 473, 529, 568, 557, 483, 411, 541, 448, 616, 640, 533, 563, 495, 519, 549, 483, 596, 650, 437, 432, 515, 564, 571, 515, 547, 622, 575, 525, 566, 608, 524, 432, 500, 507, 426, 457, 528, 537, 550, 522, 480, 503, 531, 556, 486, 511, 584, 437, 477, 508, 495, 524, 430, 563, 550, 548, 546, 446, 469, 495, 537, 597, 585, 574, 564, 473, 466, 531, 529, 564, 659, 620, 597, 489, 586, 709, 564, 582, 616, 598, 544, 497, 608, 613, 534, 556, 584, 573, 619, 564, 604, 583, 561, 695, 612, 551, 491, 578, 596, 548, 595, 633, 564, 576, 481, 516, 560, 587, 537, 491, 546, 599, 564, 572, 617, 615, 602, 484, 588, 576, 492, 519, 640, 636, 571, 544, 565, 588, 536, 528, 624, 555, 503, 522, 604, 581, 598, 628, 630, 606, 668, 662, 620, 643, 573, 563, 614, 573, 668, 651, 494, 592, 574, 509, 475, 537, 581, 517, 586, 609, 475, 527, 528, 567, 560, 477, 611, 619, 469, 575, 661, 666, 637, 546, 531, 634, 565, 642, 697, 755, 628, 480, 570, 626, 574, 655, 724, 660, 604, 560, 515, 562, 571, 581, 607, 558, 515, 549, 638, 570, 572, 524, 600, 641, 573, 583, 607, 568, 555, 553, 557, 651, 629, 556, 507, 541, 549, 532, 557, 585, 559, 533, 476, 436, 517, 559, 537, 537, 562, 523, 590, 491, 512, 531, 522, 510, 612, 681, 492, 413, 413, 544, 528, 483, 556, 566, 519, 491, 550, 522, 468, 492, 543, 531, 543, 534, 482, 451, 493, 569, 539, 523, 527, 528, 546, 539, 534, 577, 601, 557, 482, 547, 574, 592, 537, 431, 560, 598, 593, 565, 606, 620, 635, 497, 600, 618, 687, 628, 672, 639, 575, 493, 581, 696, 976, 684, 932, 1008, 793, 621, 768, 1049, 1375, 776, 871, 1119, 853, 637, 790, 1297, 1136, 1067, 1188, 977, 741, 935, 1093, 1244, 1575, 1416, 2036, 1846, 1183, 1145, 1694, 2074, 2095, 1989, 1544, 1344, 1267, 1090, 1082, 1621, 3041, 5625, 4870, 1819, 1455, 2271, 3046, 1503, 3785, 7284, 6616, 2632, 1650, 3342, 4858, 3133, 2320, 5043, 5356, 2953, 1130, 2423, 3101, 2361, 2457, 5312, 6754, 4275, 1682, 2881, 4032, 3682, 2253, 4484, 5808, 3754, 1612, 2548, 3415, 3324, 1278, 2378, 2631, 1559, 993, 1528, 1752, 1591, 704, 969, 1004, 696, 707, 795, 899, 822, 604, 624, 678, 753, 643, 596, 669, 710, 581, 587, 500, 582, 518, 472, 528, 569, 593, 562, 535, 577, 463, 546, 604, 530, 609, 582, 566, 592, 593, 512, 592, 646, 526, 551, 627, 566, 610, 563, 638, 683, 691, 582, 530, 542, 640, 643, 585, 689, 589, 511, 567, 523, 560, 631, 651, 675, 568, 612, 619, 555, 534, 623, 607, 526, 655, 642, 656, 677, 548, 542, 589, 571, 604, 638, 631, 627, 538, 533, 640, 660, 644, 640, 696, 652, 605, 670, 604, 683, 489, 564, 625, 600, 631, 689, 651, 562, 495, 701, 710, 584, 709, 769, 703, 486, 658, 762, 677, 562, 728, 821, 724, 622, 773, 619, 574, 587, 714, 730, 661, 763, 661, 520, 510, 567, 635, 602, 615, 675, 590, 592, 551, 572, 671, 645, 613, 640, 606, 525, 586, 592, 657, 605, 527, 610, 704, 711, 717, 790, 770, 669, 661, 723, 764, 820, 724, 779, 839, 659, 636, 733, 642, 750, 656, 615, 635, 532, 593, 609, 563, 544, 613, 671, 639, 565, 645, 714, 634, 591, 614, 707, 683, 580, 686, 774, 730, 647, 604, 713, 740, 663, 706, 757, 688, 622, 560, 675, 742, 703, 680, 649, 703, 753, 573, 671, 607, 577, 679, 624, 663, 669, 625, 692, 628, 629, 742, 676, 671, 640, 615, 638, 574, 622, 595, 584, 652, 646, 664, 724, 593, 567, 588, 607, 754, 716, 692, 693, 607, 535, 618, 716, 648, 655, 635, 609, 684, 637, 662, 649, 517, 659, 669, 605, 611, 702, 664, 570, 468, 557, 601, 557, 567, 642, 648, 544, 611, 602, 653, 561, 602, 678, 640, 620, 526, 672, 696, 687, 691, 794, 827, 645, 525, 680, 641, 597, 593, 677, 698, 557, 642, 662, 639, 727, 773, 636, 642, 719, 658, 616, 654, 692, 684, 546, 660, 766, 584, 625, 663, 662, 634, 562, 577, 608, 528, 528, 709, 676, 566, 595, 610, 629, 475, 531, 651, 674, 530, 492, 562, 575, 508, 560, 626, 653, 599, 519, 507, 511, 655, 712, 631, 653, 710, 611, 562, 501, 641, 628, 576, 609, 649, 601, 539, 560, 666, 647, 640, 646, 586, 649, 537, 563, 584, 627, 692, 583, 602, 674, 609, 528, 613, 628, 564, 518, 672, 666, 588, 613, 616, 660, 678, 622, 582, 697, 667, 619, 544, 634, 645, 556, 537, 657, 627, 537, 651, 660, 653, 633, 620, 690, 609, 577, 680, 671, 660, 670, 579, 583, 568, 638, 515, 540, 643, 558, 475, 505, 542, 573, 471, 584, 707, 620, 507, 593, 717, 660, 554, 628, 735, 641, 548, 628, 811, 745, 657, 559, 697, 679, 646, 624, 676, 759, 600, 494, 566, 578, 472, 486, 605, 651, 592, 517, 611, 670, 612, 516, 611, 642, 721, 642, 711, 738, 732, 647, 581, 603, 661, 644, 651, 665, 691, 710, 714, 691, 520, 635, 690, 601, 556, 588, 633, 601, 613, 722, 805, 682, 563, 582, 718, 739, 584, 583, 685, 743, 547, 537, 534, 526, 583, 551, 569, 677, 597, 563, 556, 505, 600, 500, 521, 613, 580, 479, 529, 594, 568, 553, 625, 617, 565, 585, 616, 595, 568, 564, 560, 574, 570, 527, 575, 570, 571, 577, 516, 493, 604, 579, 638, 624, 441, 522, 453, 466, 461, 499, 587, 523, 456, 479, 494, 499, 532, 600, 624, 545, 518, 595, 512, 542, 607, 538, 520, 454, 513, 479, 468, 521, 538, 474, 464, 503, 412, 359, 438, 463, 384, 369, 465, 479, 395, 430, 443, 440, 415, 350, 430, 403, 411, 447, 416, 382, 380, 436, 425, 384, 479, 483, 442, 464, 439, 436, 416, 410]"
-0.14167653024196625,-0.07153436541557312,-0.18914908170700073,-0.1302286684513092,0.05741627514362335,-0.5586272478103638,-0.1599467396736145,-0.2069566249847412,0.6616115570068359,18.75,-0.11011099815368652,0.49767494201660156,21.5,-0.04602408409118652,0.112152099609375,17.5,-0.01712775230407715,-0.11072158813476562,22.0,-0.014838933944702148,-0.11029243469238281,19.0,"[587, 637, 630, 518, 529, 514, 629, 640, 561, 573, 626, 599, 587, 615, 682, 695, 461, 518, 599, 608, 629, 611, 636, 606, 406, 534, 609, 546, 436, 489, 580, 483, 471, 509, 571, 506, 453, 449, 522, 565, 460, 498, 493, 472, 479, 508, 580, 509, 505, 523, 524, 497, 566, 593, 601, 541, 580, 483, 503, 482, 498, 510, 593, 637, 583, 479, 518, 503, 596, 503, 493, 635, 540, 517, 476, 529, 555, 485, 478, 525, 602, 568, 519, 471, 570, 529, 428, 560, 640, 502, 509, 516, 547, 559, 486, 594, 658, 608, 589, 573, 564, 637, 560, 516, 599, 625, 600, 585, 508, 608, 506, 461, 610, 525, 539, 601, 517, 501, 486, 582, 503, 569, 656, 590, 504, 524, 590, 552, 470, 549, 558, 562, 499, 468, 587, 558, 576, 618, 560, 573, 560, 574, 598, 527, 531, 646, 612, 551, 503, 584, 564, 537, 607, 628, 643, 500, 589, 565, 605, 657, 541, 530, 529, 465, 518, 520, 512, 581, 614, 625, 617, 512, 536, 618, 539, 609, 581, 623, 539, 534, 505, 565, 572, 489, 531, 536, 494, 561, 449, 448, 585, 552, 492, 518, 515, 550, 474, 423, 505, 522, 579, 575, 534, 551, 545, 502, 603, 606, 516, 552, 569, 561, 467, 464, 531, 591, 643, 574, 527, 515, 514, 475, 549, 657, 589, 563, 565, 523, 499, 579, 560, 592, 565, 566, 534, 591, 537, 503, 521, 595, 530, 559, 577, 575, 532, 607, 621, 463, 540, 573, 547, 554, 524, 515, 519, 493, 558, 539, 487, 550, 543, 477, 470, 509, 537, 500, 495, 527, 486, 455, 572, 568, 505, 487, 515, 511, 479, 503, 558, 593, 527, 536, 532, 505, 477, 524, 524, 550, 644, 615, 579, 525, 463, 556, 631, 631, 677, 649, 648, 596, 563, 571, 597, 613, 637, 570, 542, 594, 522, 506, 480, 583, 574, 481, 501, 518, 538, 541, 488, 539, 457, 567, 554, 560, 566, 548, 540, 474, 523, 551, 498, 603, 641, 615, 593, 535, 683, 604, 574, 586, 600, 594, 567, 638, 691, 671, 608, 607, 734, 577, 575, 725, 585, 618, 701, 649, 702, 575, 554, 713, 554, 695, 705, 687, 716, 601, 484, 577, 960, 1392, 1632, 1135, 817, 932, 1361, 1431, 1829, 4131, 4937, 2776, 1104, 2483, 4759, 4301, 1935, 6061, 7116, 3781, 1121, 3381, 6559, 5654, 1458, 4136, 4393, 2068, 1028, 2240, 3609, 2779, 883, 2527, 3083, 1902, 782, 1287, 1597, 1352, 546, 1429, 2023, 1419, 539, 880, 1144, 1141, 511, 767, 829, 638, 559, 699, 774, 666, 463, 553, 594, 542, 496, 599, 702, 620, 515, 580, 580, 544, 502, 573, 695, 628, 548, 579, 669, 591, 461, 583, 730, 648, 609, 605, 589, 554, 507, 583, 734, 643, 709, 663, 491, 477, 612, 654, 623, 648, 660, 685, 654, 574, 627, 723, 598, 556, 602, 689, 650, 632, 511, 606, 615, 513, 543, 556, 549, 614, 540, 554, 562, 561, 591, 571, 610, 676, 666, 584, 601, 642, 568, 596, 587, 622, 586, 620, 635, 551, 603, 518, 516, 550, 615, 630, 588, 663, 607, 510, 495, 591, 587, 506, 480, 557, 652, 525, 484, 547, 587, 590, 595, 616, 617, 522, 522, 547, 517, 540, 505, 586, 688, 582, 471, 485, 536, 542, 519, 615, 618, 556, 519, 541, 536, 539, 583, 606, 592, 527, 589, 603, 559, 505, 568, 650, 600, 641, 666, 625, 598, 551, 619, 605, 583, 644, 659, 636, 603, 566, 614, 602, 672, 634, 662, 691, 655, 566, 600, 701, 636, 619, 599, 612, 675, 610, 509, 601, 542, 577, 611, 553, 491, 575, 575, 526, 608, 548, 600, 686, 524, 615, 691, 546, 557, 622, 545, 587, 566, 639, 754, 618, 551, 684, 578, 530, 517, 587, 676, 586, 668, 737, 548, 445, 580, 618, 579, 551, 668, 624, 546, 591, 671, 603, 515, 569, 566, 531, 565, 686, 670, 553, 568, 600, 630, 565, 569, 619, 627, 522, 633, 727, 672, 593, 626, 630, 586, 639, 622, 614, 679, 587, 633, 690, 611, 650, 662, 724, 617, 625, 645, 633, 644, 676, 673, 692, 565, 532, 620, 648, 622, 571, 605, 632, 639, 509, 570, 609, 568, 562, 531, 645, 620, 508, 478, 551, 673, 705, 638, 580, 617, 524, 535, 601, 566, 587, 589, 580, 727, 690, 595, 576, 631, 519, 559, 687, 653, 554, 557, 665, 591, 566, 604, 623, 643, 523, 555, 545, 563, 568, 574, 588, 620, 574, 487, 514, 624, 601, 579, 638, 663, 625, 512, 481, 589, 546, 495, 532, 559, 626, 545, 531, 638, 586, 508, 532, 549, 536, 563, 525, 577, 526, 506, 569, 575, 575, 501, 543, 543, 532, 594, 605, 617, 637, 569, 565, 542, 618, 616, 539, 555, 563, 568, 540, 592, 576, 612, 561, 572, 558, 554, 556, 649, 547, 514, 526, 561, 615, 594, 580, 614, 576, 512, 486, 648, 568, 560, 593, 598, 548, 528, 550, 521, 557, 623, 574, 536, 607, 588, 517, 563, 615, 608, 578, 536, 673, 617, 557, 558, 613, 582, 482, 536, 603, 589, 581, 493, 542, 593, 602, 609, 568, 556, 517, 442, 572, 547, 589, 555, 540, 649, 562, 545, 592, 590, 595, 562, 618, 685, 588, 547, 573, 608, 661, 665, 655, 647, 550, 405, 567, 639, 572, 580, 703, 693, 484, 515, 581, 547, 518, 504, 562, 629, 529, 597, 646, 569, 618, 523, 566, 669, 599, 589, 580, 560, 531, 466, 610, 652, 554, 549, 571, 571, 587, 576, 588, 584, 582, 591, 544, 602, 705, 594, 617, 640, 653, 583, 518, 611, 614, 553, 545, 648, 666, 598, 570, 528, 531, 566, 606, 547, 554, 630, 584, 446, 530, 581, 526, 493, 523, 601, 530, 429, 547, 576, 496, 435, 492, 509, 499, 558, 512, 475, 492, 552, 564, 398, 486, 529, 424, 439, 509, 499, 429, 452, 517, 450, 421, 562, 607, 465, 441, 510, 490, 420, 409, 472, 500, 415, 418, 477, 446, 414, 434, 452, 460, 451, 481, 442, 357, 417, 466, 430, 380, 399, 474, 468, 389, 380, 517, 553, 423, 412, 499, 416, 402, 398, 380, 404, 417, 359, 389, 396, 377, 376, 389, 350, 335, 341, 379]"
-0.15500003099441528,-0.03508709371089935,-0.24120478332042694,-0.14601407945156097,0.09032116085290909,-0.5458316802978516,-0.160724475979805,-0.20486152172088623,-0.21429061889648438,19.0,-0.12317931652069092,0.5467414855957031,20.75,-0.07139480113983154,0.44188499450683594,21.25,-0.06424224376678467,-0.3275871276855469,21.75,-0.011313319206237793,-0.102996826171875,15.5,"[591, 718, 777, 725, 583, 726, 777, 716, 587, 600, 627, 687, 655, 664, 670, 666, 500, 582, 625, 638, 573, 599, 604, 549, 510, 528, 465, 471, 534, 505, 508, 513, 517, 546, 519, 474, 515, 521, 550, 575, 489, 518, 569, 488, 482, 560, 564, 517, 489, 544, 523, 487, 553, 589, 545, 448, 556, 535, 455, 562, 572, 533, 495, 462, 454, 470, 428, 526, 529, 428, 493, 472, 515, 451, 461, 566, 492, 474, 607, 602, 552, 571, 521, 527, 508, 522, 574, 553, 613, 544, 500, 514, 558, 556, 475, 545, 498, 453, 562, 595, 501, 505, 484, 425, 554, 600, 609, 572, 540, 561, 510, 454, 491, 578, 675, 644, 565, 587, 566, 488, 556, 473, 538, 610, 604, 575, 484, 550, 563, 501, 527, 613, 566, 515, 509, 563, 662, 579, 503, 583, 551, 532, 581, 612, 628, 553, 518, 575, 517, 604, 571, 598, 587, 536, 513, 581, 576, 516, 516, 640, 575, 581, 548, 548, 601, 609, 508, 586, 663, 614, 600, 569, 588, 583, 541, 569, 594, 583, 565, 518, 513, 526, 534, 571, 518, 555, 641, 568, 517, 511, 568, 547, 466, 609, 662, 539, 425, 440, 559, 544, 466, 461, 530, 469, 454, 468, 494, 541, 462, 521, 638, 569, 430, 523, 546, 534, 537, 573, 596, 556, 513, 674, 683, 529, 492, 516, 540, 552, 503, 589, 686, 549, 498, 540, 574, 539, 498, 527, 613, 608, 471, 600, 671, 566, 462, 498, 600, 560, 546, 520, 568, 594, 546, 561, 623, 604, 537, 455, 499, 581, 544, 529, 494, 493, 564, 544, 583, 587, 554, 535, 516, 558, 582, 679, 587, 532, 603, 586, 568, 587, 454, 576, 553, 482, 479, 486, 640, 610, 494, 536, 552, 519, 485, 475, 590, 571, 556, 592, 609, 548, 519, 648, 679, 579, 535, 562, 519, 474, 501, 558, 616, 583, 579, 572, 530, 583, 620, 542, 527, 550, 631, 604, 531, 501, 550, 557, 524, 547, 921, 627, 643, 805, 693, 563, 632, 872, 1386, 718, 951, 1148, 765, 584, 859, 1452, 1194, 1180, 1188, 1037, 911, 758, 999, 1322, 963, 2075, 3264, 2336, 807, 1160, 2410, 2640, 1374, 3474, 4007, 2369, 698, 1890, 2640, 2145, 2785, 5302, 4697, 1748, 1425, 2614, 3712, 2293, 2926, 6729, 7551, 4035, 1457, 3678, 6804, 5910, 1753, 6205, 7666, 4444, 1122, 3614, 6918, 6020, 1444, 4722, 6677, 4640, 1281, 2175, 4833, 4628, 2594, 3261, 6065, 5127, 1902, 1210, 3488, 4674, 1810, 1739, 3552, 3206, 1411, 827, 1990, 2921, 776, 804, 1155, 952, 688, 629, 963, 1133, 670, 620, 573, 546, 655, 649, 640, 631, 558, 675, 606, 574, 623, 649, 692, 600, 520, 602, 671, 611, 572, 651, 707, 634, 508, 607, 632, 588, 650, 622, 601, 525, 593, 696, 615, 578, 571, 554, 575, 545, 584, 677, 590, 521, 536, 542, 504, 472, 468, 582, 553, 439, 475, 445, 491, 509, 543, 540, 544, 575, 500, 469, 563, 618, 602, 593, 557, 565, 468, 489, 609, 639, 545, 619, 642, 527, 492, 535, 583, 574, 592, 530, 526, 489, 567, 582, 557, 550, 600, 614, 530, 499, 588, 629, 558, 538, 649, 800, 735, 606, 686, 796, 739, 580, 626, 789, 873, 763, 719, 893, 837, 591, 561, 749, 832, 673, 706, 778, 861, 644, 626, 710, 780, 661, 609, 606, 779, 758, 635, 711, 814, 699, 590, 570, 674, 664, 524, 616, 814, 749, 594, 591, 696, 640, 561, 591, 733, 691, 595, 506, 643, 648, 632, 612, 709, 645, 633, 501, 599, 714, 604, 627, 593, 594, 588, 615, 583, 593, 681, 667, 550, 561, 628, 562, 428, 525, 594, 596, 649, 575, 587, 613, 540, 522, 652, 613, 716, 592, 537, 641, 653, 585, 705, 655, 724, 643, 504, 671, 752, 716, 603, 548, 595, 537, 515, 555, 560, 615, 658, 685, 702, 595, 645, 742, 705, 628, 548, 545, 647, 623, 644, 642, 534, 540, 551, 527, 608, 638, 667, 714, 627, 603, 577, 579, 598, 593, 616, 599, 562, 593, 505, 516, 617, 585, 486, 484, 621, 607, 521, 656, 804, 621, 520, 636, 763, 677, 599, 655, 868, 766, 699, 658, 806, 781, 681, 587, 649, 638, 715, 731, 699, 800, 641, 660, 604, 570, 636, 718, 656, 641, 518, 595, 643, 637, 626, 625, 611, 531, 529, 630, 698, 597, 659, 722, 652, 503, 493, 573, 676, 580, 514, 726, 688, 593, 594, 693, 731, 595, 606, 704, 743, 685, 545, 631, 642, 601, 585, 578, 615, 652, 512, 554, 577, 580, 626, 560, 565, 599, 465, 511, 565, 627, 643, 596, 626, 574, 520, 575, 599, 581, 599, 642, 704, 644, 577, 654, 668, 621, 560, 725, 835, 684, 636, 592, 629, 796, 693, 691, 811, 694, 622, 684, 630, 632, 618, 612, 671, 619, 593, 601, 594, 613, 607, 602, 601, 633, 505, 625, 588, 559, 617, 672, 601, 529, 575, 604, 626, 625, 582, 683, 605, 500, 594, 722, 668, 602, 519, 657, 609, 456, 587, 689, 607, 613, 556, 607, 655, 598, 632, 667, 628, 663, 568, 611, 659, 661, 749, 682, 721, 724, 680, 754, 778, 722, 618, 739, 667, 609, 622, 748, 738, 603, 580, 626, 676, 569, 595, 691, 732, 636, 635, 602, 655, 668, 593, 642, 777, 758, 590, 727, 878, 788, 597, 733, 918, 851, 594, 663, 766, 778, 632, 752, 960, 821, 604, 702, 727, 676, 570, 745, 786, 601, 641, 628, 613, 565, 545, 737, 686, 572, 672, 607, 587, 512, 591, 709, 592, 661, 672, 752, 849, 693, 612, 655, 626, 713, 583, 678, 729, 604, 565, 548, 553, 591, 584, 620, 647, 628, 605, 647, 593, 524, 562, 557, 540, 537, 518, 610, 612, 538, 581, 597, 545, 565, 577, 605, 564, 516, 627, 628, 634, 538, 515, 521, 584, 667, 598, 531, 539, 520, 450, 432, 453, 565, 508, 491, 530, 491, 401, 450, 447, 503, 516, 441, 413, 471, 440, 442, 415, 453, 441, 440, 365, 446, 468, 406, 411, 445, 440, 421, 356, 403, 432, 410, 379, 378, 416, 430, 485, 431, 419, 523, 559, 468, 419, 542, 575, 443, 414, 498, 521, 420, 385, 423, 473, 450, 362, 369, 444, 469]"
-0.2100110948085785,0.02789858728647232,-0.3454204499721527,-0.2501276731491089,0.2097589075565338,-0.6772875785827637,-0.25800415873527527,-0.04468345642089844,0.4746437072753906,18.25,-0.036815643310546875,0.37822723388671875,25.75,-0.021509170532226562,0.33016204833984375,22.0,-0.0017681121826171875,0.0,25.25,0.10480499267578125,0.16851425170898438,20.75,"[544, 645, 613, 537, 574, 537, 617, 646, 499, 494, 551, 568, 693, 661, 669, 641, 481, 528, 575, 599, 613, 610, 643, 547, 520, 518, 561, 508, 481, 496, 568, 568, 424, 434, 452, 450, 463, 452, 501, 492, 470, 483, 553, 529, 458, 466, 551, 509, 474, 453, 526, 488, 516, 514, 469, 498, 493, 491, 474, 439, 498, 462, 450, 503, 499, 579, 517, 399, 479, 583, 522, 426, 661, 665, 540, 531, 593, 597, 495, 551, 568, 632, 552, 521, 620, 571, 604, 594, 582, 602, 523, 542, 630, 597, 549, 521, 477, 490, 501, 513, 564, 551, 555, 515, 456, 450, 444, 451, 514, 526, 532, 511, 529, 495, 499, 432, 496, 511, 504, 567, 579, 586, 577, 615, 603, 594, 619, 624, 513, 571, 578, 578, 577, 591, 591, 537, 483, 512, 582, 580, 629, 597, 600, 569, 518, 597, 524, 541, 600, 532, 534, 493, 571, 589, 465, 535, 578, 592, 546, 522, 512, 514, 517, 520, 566, 631, 546, 516, 565, 547, 605, 565, 600, 641, 588, 631, 622, 540, 555, 577, 528, 523, 564, 654, 534, 498, 535, 545, 520, 538, 571, 560, 496, 450, 512, 491, 535, 556, 627, 603, 573, 545, 553, 553, 501, 484, 649, 680, 525, 636, 605, 530, 503, 560, 596, 518, 536, 559, 634, 569, 552, 602, 624, 606, 467, 475, 623, 603, 458, 511, 662, 633, 495, 551, 589, 519, 480, 511, 596, 522, 548, 468, 627, 621, 502, 592, 693, 647, 539, 542, 604, 644, 593, 567, 649, 574, 481, 495, 572, 590, 500, 504, 601, 545, 536, 558, 631, 617, 546, 505, 571, 548, 565, 551, 587, 627, 580, 530, 537, 556, 568, 572, 586, 563, 524, 516, 534, 537, 532, 631, 649, 578, 638, 606, 596, 596, 489, 648, 666, 514, 498, 566, 499, 410, 540, 621, 551, 509, 502, 546, 547, 573, 436, 593, 554, 455, 521, 613, 585, 478, 547, 486, 520, 575, 638, 513, 477, 581, 844, 544, 616, 792, 674, 619, 615, 810, 1286, 648, 1248, 1325, 876, 679, 1124, 1610, 1129, 1586, 2459, 1813, 765, 961, 2030, 2291, 1005, 3057, 3411, 1754, 717, 1702, 2937, 2355, 1746, 4743, 4916, 2526, 1319, 2911, 4472, 3078, 2927, 9134, 10735, 5860, 1882, 4563, 8926, 7761, 3040, 9298, 11105, 6107, 1650, 4717, 9532, 8423, 1885, 6252, 7001, 3833, 1071, 3232, 5490, 4000, 1450, 4470, 5910, 3882, 1125, 2135, 3172, 2969, 794, 2575, 3416, 2154, 781, 1267, 1854, 1902, 762, 892, 882, 736, 640, 686, 738, 799, 663, 801, 710, 675, 705, 624, 588, 530, 707, 693, 535, 603, 683, 553, 564, 570, 688, 695, 493, 511, 614, 603, 569, 549, 670, 703, 628, 638, 680, 630, 589, 671, 648, 641, 522, 518, 622, 597, 543, 611, 616, 668, 589, 521, 654, 648, 571, 568, 480, 576, 576, 499, 566, 640, 540, 494, 655, 584, 599, 623, 623, 585, 580, 618, 632, 523, 533, 574, 585, 511, 498, 563, 634, 514, 443, 560, 538, 495, 493, 594, 693, 633, 544, 506, 521, 543, 577, 616, 703, 600, 628, 613, 645, 668, 590, 638, 537, 639, 699, 549, 496, 584, 627, 568, 646, 648, 807, 634, 540, 761, 615, 583, 629, 687, 851, 740, 567, 682, 613, 584, 592, 636, 705, 554, 601, 595, 508, 582, 587, 674, 694, 553, 581, 659, 621, 539, 605, 695, 593, 588, 625, 680, 679, 564, 802, 808, 699, 663, 729, 738, 710, 668, 783, 895, 802, 714, 704, 753, 683, 677, 545, 708, 712, 568, 591, 695, 709, 624, 562, 678, 652, 562, 595, 663, 563, 475, 525, 566, 552, 501, 580, 561, 523, 497, 637, 533, 574, 550, 502, 560, 606, 656, 605, 613, 575, 584, 530, 545, 584, 608, 581, 606, 666, 687, 573, 571, 645, 636, 634, 671, 794, 649, 523, 618, 693, 699, 691, 699, 683, 699, 605, 665, 721, 680, 693, 649, 564, 592, 561, 652, 724, 650, 677, 567, 593, 669, 651, 635, 724, 811, 755, 638, 528, 604, 695, 736, 670, 733, 690, 608, 587, 701, 671, 673, 648, 669, 621, 554, 534, 632, 608, 602, 580, 587, 542, 536, 510, 531, 608, 528, 508, 541, 546, 521, 635, 605, 517, 498, 601, 574, 619, 670, 682, 648, 554, 601, 657, 647, 600, 611, 569, 588, 605, 599, 615, 639, 659, 571, 635, 618, 590, 597, 613, 643, 657, 619, 711, 690, 533, 581, 588, 614, 575, 616, 709, 659, 552, 608, 634, 603, 479, 486, 514, 490, 549, 560, 540, 525, 525, 478, 513, 554, 517, 570, 523, 469, 575, 498, 549, 570, 509, 544, 492, 538, 619, 674, 566, 445, 513, 536, 564, 532, 560, 582, 615, 570, 597, 646, 716, 609, 664, 611, 538, 681, 672, 625, 721, 642, 636, 664, 490, 581, 623, 601, 645, 602, 499, 682, 640, 542, 540, 524, 680, 612, 586, 656, 636, 578, 610, 708, 668, 640, 573, 629, 532, 545, 558, 600, 619, 536, 691, 662, 586, 595, 605, 669, 669, 652, 677, 644, 603, 585, 598, 624, 645, 680, 686, 564, 532, 545, 565, 658, 620, 660, 615, 658, 609, 507, 624, 692, 689, 631, 641, 685, 555, 567, 657, 651, 672, 617, 717, 768, 670, 701, 650, 687, 828, 733, 715, 876, 795, 675, 597, 748, 887, 751, 684, 850, 756, 683, 596, 663, 712, 612, 628, 615, 701, 665, 578, 700, 672, 580, 573, 642, 669, 579, 609, 698, 709, 566, 646, 637, 604, 554, 574, 632, 673, 677, 658, 753, 822, 672, 599, 694, 854, 828, 624, 659, 762, 668, 604, 635, 820, 877, 571, 614, 631, 626, 649, 654, 614, 628, 616, 782, 759, 595, 570, 675, 868, 744, 534, 617, 601, 567, 526, 550, 759, 670, 540, 586, 558, 513, 598, 544, 617, 622, 516, 510, 524, 564, 557, 484, 613, 622, 486, 508, 465, 489, 494, 552, 574, 496, 491, 521, 464, 399, 428, 564, 512, 396, 376, 450, 513, 417, 345, 520, 507, 382, 467, 392, 479, 502, 505, 485, 442, 459, 474, 360, 449, 508, 516, 463, 440, 504, 410, 333, 423, 466, 424, 441, 464, 479, 422, 459, 540, 473, 384, 396, 436, 446, 418, 436, 408, 395, 395, 426, 417, 432]"
-0.23804433643817902,0.025374505668878555,-0.4132840037345886,-0.28092893958091736,0.17442841827869415,-0.674873948097229,-0.26540225744247437,-0.451585054397583,0.6209850311279297,15.25,-0.19080281257629395,0.47392845153808594,21.75,0.03779292106628418,0.4506111145019531,17.0,0.08986353874206543,-0.21114349365234375,21.75,0.141218900680542,0.21958351135253906,17.75,"[639, 592, 613, 646, 676, 646, 612, 588, 601, 541, 500, 680, 744, 671, 662, 682, 542, 510, 471, 542, 663, 674, 567, 539, 467, 431, 420, 521, 551, 482, 492, 503, 483, 388, 414, 514, 478, 461, 502, 502, 490, 393, 499, 474, 505, 561, 517, 506, 571, 480, 469, 492, 528, 598, 546, 553, 551, 524, 504, 462, 483, 602, 555, 522, 462, 490, 439, 443, 455, 437, 400, 431, 529, 543, 538, 505, 452, 469, 476, 549, 490, 505, 518, 499, 488, 492, 523, 553, 528, 599, 499, 555, 592, 586, 600, 537, 473, 469, 534, 634, 549, 497, 599, 590, 550, 421, 488, 617, 576, 504, 495, 544, 524, 517, 544, 579, 600, 559, 551, 544, 499, 486, 495, 530, 574, 554, 528, 517, 443, 560, 602, 551, 538, 542, 668, 578, 455, 614, 590, 530, 596, 671, 726, 521, 537, 639, 670, 617, 654, 610, 607, 556, 505, 553, 508, 490, 496, 507, 494, 475, 501, 547, 570, 568, 480, 570, 601, 527, 595, 594, 480, 554, 612, 590, 490, 519, 572, 531, 532, 602, 571, 585, 641, 603, 534, 532, 549, 616, 602, 592, 626, 510, 546, 484, 523, 559, 531, 531, 444, 521, 531, 574, 658, 586, 522, 608, 590, 483, 575, 677, 639, 526, 536, 592, 579, 503, 579, 621, 639, 522, 514, 603, 523, 546, 537, 534, 479, 489, 553, 540, 465, 498, 607, 597, 581, 551, 620, 625, 584, 585, 622, 634, 537, 505, 567, 515, 555, 608, 600, 578, 580, 509, 554, 577, 613, 610, 491, 395, 436, 510, 483, 494, 491, 550, 465, 542, 564, 543, 481, 541, 571, 526, 471, 472, 515, 592, 542, 512, 512, 489, 610, 551, 505, 457, 546, 588, 486, 520, 657, 586, 579, 568, 607, 645, 538, 553, 723, 763, 657, 572, 661, 761, 624, 535, 664, 678, 605, 567, 531, 594, 505, 532, 613, 654, 570, 574, 575, 585, 514, 518, 602, 638, 598, 591, 623, 612, 549, 569, 686, 575, 627, 619, 542, 526, 572, 695, 1037, 555, 956, 1052, 722, 463, 741, 1201, 1035, 953, 1671, 1433, 774, 719, 1106, 1502, 2050, 1822, 3004, 2490, 1193, 1328, 2280, 3028, 2319, 4085, 7028, 5067, 1254, 2813, 6106, 6504, 2091, 8163, 11237, 7025, 1257, 4718, 9819, 9160, 1492, 6859, 9383, 5901, 1052, 3405, 7513, 7088, 1583, 3122, 4838, 3541, 1267, 1364, 2317, 2974, 1594, 3760, 4368, 2601, 1110, 2067, 2263, 1744, 1148, 2673, 3071, 1901, 803, 1616, 2211, 1734, 691, 1223, 1380, 979, 699, 996, 1167, 955, 715, 768, 834, 751, 660, 766, 788, 711, 738, 691, 664, 571, 594, 655, 539, 596, 680, 618, 680, 642, 549, 683, 653, 530, 571, 634, 637, 598, 549, 647, 693, 600, 529, 633, 636, 512, 481, 599, 630, 602, 531, 559, 611, 597, 547, 561, 605, 552, 519, 556, 611, 581, 528, 631, 615, 545, 543, 654, 622, 576, 600, 660, 562, 480, 515, 543, 587, 677, 695, 626, 531, 492, 453, 472, 553, 560, 576, 575, 542, 458, 457, 522, 561, 625, 633, 589, 588, 539, 615, 754, 730, 605, 652, 712, 666, 527, 799, 947, 748, 586, 699, 806, 630, 549, 834, 815, 604, 713, 722, 739, 674, 604, 829, 797, 577, 742, 810, 679, 588, 619, 772, 691, 645, 735, 743, 711, 593, 639, 633, 583, 693, 621, 724, 813, 570, 557, 610, 524, 752, 735, 615, 648, 634, 633, 712, 638, 650, 632, 505, 558, 614, 645, 747, 695, 595, 591, 523, 635, 700, 649, 710, 617, 497, 541, 541, 594, 602, 602, 706, 575, 652, 708, 665, 698, 662, 737, 570, 610, 719, 655, 584, 539, 649, 694, 561, 578, 683, 670, 565, 545, 659, 694, 518, 589, 673, 627, 561, 561, 618, 617, 667, 735, 735, 693, 649, 545, 706, 759, 820, 719, 864, 794, 679, 685, 783, 853, 730, 700, 777, 885, 690, 622, 723, 719, 653, 667, 719, 767, 722, 623, 583, 644, 573, 679, 666, 590, 643, 580, 585, 626, 662, 636, 712, 723, 736, 634, 742, 716, 651, 641, 645, 660, 578, 553, 605, 615, 560, 548, 575, 538, 508, 479, 527, 632, 584, 651, 669, 591, 573, 565, 586, 623, 606, 629, 683, 645, 633, 645, 671, 709, 627, 566, 585, 578, 581, 639, 666, 689, 521, 543, 529, 536, 571, 641, 701, 611, 650, 537, 497, 526, 604, 618, 574, 593, 554, 601, 577, 569, 553, 542, 659, 607, 554, 505, 570, 618, 546, 499, 607, 669, 549, 548, 572, 618, 596, 598, 545, 493, 572, 589, 564, 542, 595, 613, 498, 490, 692, 570, 573, 579, 635, 675, 519, 576, 630, 620, 607, 597, 634, 691, 603, 606, 574, 595, 598, 534, 537, 586, 577, 550, 541, 559, 604, 571, 549, 509, 549, 586, 562, 561, 637, 587, 476, 538, 642, 662, 541, 522, 564, 534, 546, 559, 624, 643, 523, 593, 564, 508, 568, 642, 597, 508, 589, 710, 697, 569, 621, 594, 557, 552, 656, 666, 597, 552, 583, 550, 505, 540, 570, 584, 647, 645, 565, 608, 670, 622, 688, 583, 581, 686, 583, 596, 700, 738, 792, 643, 781, 777, 626, 797, 958, 960, 963, 591, 1016, 1110, 706, 711, 1110, 1294, 1044, 758, 1010, 1054, 803, 669, 819, 1263, 745, 914, 837, 674, 663, 728, 898, 846, 702, 774, 832, 702, 607, 699, 997, 1006, 719, 817, 1153, 883, 537, 693, 1250, 1320, 591, 795, 1028, 815, 529, 625, 1005, 1011, 593, 614, 590, 614, 523, 556, 608, 596, 615, 666, 672, 627, 553, 659, 847, 836, 625, 567, 627, 538, 635, 639, 628, 710, 666, 572, 511, 508, 577, 519, 574, 659, 582, 522, 508, 509, 553, 590, 552, 524, 602, 622, 639, 627, 497, 618, 707, 588, 580, 577, 614, 646, 485, 510, 583, 639, 522, 540, 534, 543, 544, 484, 492, 585, 438, 521, 595, 541, 492, 448, 580, 575, 427, 549, 552, 529, 548, 503, 590, 564, 406, 474, 469, 465, 470, 480, 493, 480, 453, 459, 508, 547, 491, 490, 538, 501, 363, 337, 503, 517, 408, 445, 549, 475, 443, 412, 522, 511, 437, 429, 544, 521, 487, 405, 410, 412, 409, 387, 450, 525, 458, 468, 369, 406, 528, 522, 411, 403]"
-0.3458887040615082,-0.07589618861675262,-0.3580251932144165,-0.5484355688095093,-0.09674321115016937,-0.367282897233963,-0.615010678768158,-0.03740346431732178,-0.423431396484375,18.0,-0.021381735801696777,-0.4810810089111328,23.75,-0.008936285972595215,0.4227161407470703,18.0,0.0418468713760376,-0.3769397735595703,22.25,0.06845438480377197,-0.2190113067626953,17.0,"[544, 617, 666, 638, 635, 638, 666, 618, 560, 632, 626, 609, 603, 611, 763, 704, 516, 533, 543, 617, 611, 595, 614, 504, 591, 587, 525, 572, 612, 522, 507, 560, 492, 557, 508, 513, 502, 478, 559, 573, 479, 513, 551, 533, 475, 471, 480, 445, 505, 490, 472, 524, 520, 465, 401, 437, 601, 548, 495, 559, 567, 527, 494, 575, 587, 474, 479, 534, 458, 489, 507, 534, 433, 427, 445, 469, 449, 532, 563, 491, 400, 472, 467, 378, 408, 513, 541, 523, 479, 612, 607, 416, 406, 569, 593, 504, 405, 413, 538, 508, 435, 458, 491, 467, 519, 462, 567, 644, 511, 500, 609, 640, 563, 485, 544, 600, 555, 511, 624, 668, 552, 523, 549, 515, 570, 582, 560, 611, 496, 551, 539, 557, 505, 486, 476, 458, 448, 511, 514, 535, 516, 474, 535, 500, 458, 553, 596, 532, 543, 604, 598, 527, 574, 539, 576, 515, 508, 550, 471, 622, 598, 593, 533, 514, 514, 533, 523, 606, 634, 669, 502, 446, 598, 584, 513, 552, 639, 558, 456, 515, 534, 555, 570, 624, 570, 459, 453, 502, 565, 592, 545, 585, 573, 471, 500, 584, 562, 474, 557, 592, 562, 411, 553, 664, 567, 499, 601, 639, 564, 537, 494, 592, 642, 614, 524, 523, 576, 588, 616, 569, 536, 579, 548, 561, 556, 654, 712, 556, 397, 504, 585, 636, 543, 566, 587, 555, 453, 538, 608, 567, 490, 537, 517, 471, 480, 572, 576, 506, 540, 562, 635, 619, 562, 577, 572, 547, 492, 517, 539, 545, 548, 469, 442, 478, 571, 580, 575, 542, 579, 569, 492, 561, 637, 607, 619, 591, 569, 514, 589, 613, 562, 503, 533, 597, 545, 470, 482, 552, 586, 503, 559, 618, 624, 565, 568, 576, 673, 593, 528, 596, 711, 695, 584, 598, 655, 634, 595, 638, 744, 724, 617, 592, 546, 626, 646, 571, 617, 689, 611, 541, 520, 570, 623, 657, 576, 520, 549, 558, 634, 566, 603, 693, 632, 530, 520, 604, 1122, 680, 800, 984, 754, 608, 784, 1187, 1186, 716, 1094, 1092, 790, 573, 1087, 1465, 959, 1707, 1934, 1300, 788, 1273, 1783, 1387, 1688, 4009, 4610, 2557, 1088, 2852, 4435, 3663, 1794, 7415, 9153, 4993, 1129, 3906, 7537, 6655, 1040, 6028, 7923, 4568, 835, 2402, 5759, 5628, 1232, 3632, 4298, 2325, 1018, 1617, 2943, 2765, 1177, 2839, 2807, 1314, 1062, 1780, 2479, 1813, 872, 1218, 1115, 991, 908, 1205, 1383, 1107, 683, 826, 914, 835, 715, 853, 721, 653, 617, 948, 841, 592, 673, 813, 722, 462, 594, 716, 675, 554, 619, 608, 577, 533, 694, 764, 721, 670, 668, 637, 596, 647, 734, 697, 655, 644, 676, 636, 557, 648, 629, 644, 643, 595, 609, 614, 502, 629, 651, 474, 548, 645, 657, 612, 554, 668, 571, 474, 562, 645, 615, 506, 525, 619, 552, 493, 581, 677, 678, 591, 518, 593, 626, 467, 538, 622, 632, 610, 504, 638, 648, 518, 587, 733, 607, 551, 635, 656, 560, 636, 579, 491, 633, 667, 618, 587, 629, 726, 675, 540, 547, 618, 687, 625, 658, 797, 742, 693, 629, 746, 796, 667, 777, 953, 877, 713, 677, 789, 688, 545, 651, 784, 912, 751, 652, 753, 684, 565, 652, 648, 665, 633, 507, 569, 608, 639, 703, 627, 479, 478, 606, 664, 606, 624, 621, 590, 520, 487, 575, 547, 554, 607, 594, 684, 708, 572, 578, 592, 543, 525, 691, 757, 785, 688, 635, 596, 596, 653, 570, 567, 591, 620, 573, 521, 492, 605, 561, 550, 636, 652, 546, 544, 532, 617, 582, 567, 705, 765, 533, 592, 692, 637, 617, 674, 653, 630, 481, 565, 663, 584, 582, 648, 649, 561, 507, 573, 605, 586, 585, 624, 714, 654, 600, 603, 668, 646, 594, 572, 554, 615, 567, 581, 612, 624, 551, 535, 567, 665, 613, 537, 559, 596, 595, 606, 601, 674, 619, 592, 581, 563, 628, 668, 552, 698, 675, 597, 583, 585, 638, 586, 630, 696, 718, 587, 558, 647, 615, 608, 591, 619, 667, 608, 526, 605, 601, 551, 485, 516, 585, 554, 518, 571, 584, 495, 496, 495, 520, 533, 574, 593, 642, 457, 496, 616, 608, 624, 643, 703, 637, 552, 600, 695, 666, 621, 667, 718, 541, 630, 570, 589, 664, 574, 620, 625, 627, 648, 616, 627, 547, 512, 565, 565, 603, 700, 698, 642, 622, 623, 725, 639, 643, 572, 575, 559, 613, 625, 613, 627, 607, 536, 483, 548, 578, 532, 579, 603, 619, 593, 538, 614, 610, 579, 664, 645, 618, 587, 685, 666, 594, 547, 703, 748, 655, 590, 563, 603, 592, 562, 622, 699, 673, 677, 627, 596, 626, 586, 525, 635, 667, 628, 543, 628, 694, 672, 636, 671, 543, 499, 617, 599, 569, 621, 676, 679, 514, 605, 575, 594, 560, 630, 687, 628, 463, 565, 589, 555, 551, 620, 596, 522, 558, 589, 669, 538, 527, 637, 653, 635, 644, 694, 583, 607, 682, 641, 612, 600, 640, 626, 491, 542, 702, 599, 523, 597, 602, 635, 592, 602, 554, 512, 560, 527, 568, 637, 655, 567, 567, 594, 585, 548, 624, 617, 600, 628, 637, 628, 562, 553, 579, 616, 622, 568, 711, 744, 586, 544, 666, 691, 616, 570, 629, 632, 610, 577, 655, 722, 673, 645, 590, 622, 692, 694, 586, 622, 677, 648, 496, 487, 740, 730, 622, 839, 866, 677, 572, 594, 737, 707, 584, 883, 798, 624, 545, 586, 703, 565, 561, 781, 748, 634, 592, 577, 701, 625, 567, 660, 654, 669, 534, 652, 689, 592, 579, 671, 675, 579, 542, 689, 627, 501, 657, 819, 785, 602, 586, 700, 644, 571, 588, 687, 614, 525, 551, 526, 555, 519, 503, 507, 557, 568, 531, 545, 541, 489, 513, 516, 554, 628, 540, 510, 481, 453, 464, 507, 519, 559, 499, 450, 494, 461, 487, 536, 488, 488, 518, 548, 504, 488, 473, 463, 424, 422, 471, 500, 456, 483, 419, 469, 417, 430, 465, 417, 401, 395, 440, 425, 387, 343, 393, 394, 408, 405, 493, 488, 465, 414, 396, 434, 488, 462, 382, 446, 456, 441, 410, 482, 473, 420, 420, 489, 452, 421, 480, 444, 385, 371]"
-0.4535927176475525,-0.12966302037239075,-0.3790130317211151,-0.7676509022712708,-0.2055942416191101,-0.28724581003189087,-0.8437069058418274,-0.16627252101898193,-0.6869316101074219,23.5,-0.02679765224456787,-0.533294677734375,27.25,-0.026511549949645996,-0.6563186645507812,21.5,-0.024794936180114746,-0.6694793701171875,15.75,0.09651243686676025,-0.2692222595214844,26.25,"[659, 644, 660, 667, 667, 664, 660, 647, 558, 624, 586, 596, 664, 610, 606, 594, 566, 557, 462, 510, 628, 627, 561, 551, 539, 591, 576, 506, 571, 583, 557, 559, 574, 559, 569, 526, 525, 562, 524, 505, 541, 594, 515, 522, 585, 557, 543, 454, 497, 494, 514, 516, 516, 475, 581, 558, 498, 498, 503, 531, 562, 432, 486, 565, 504, 525, 464, 484, 569, 455, 440, 501, 538, 574, 541, 493, 504, 472, 542, 525, 511, 539, 551, 514, 531, 557, 558, 552, 537, 500, 549, 536, 520, 509, 547, 549, 552, 586, 626, 612, 512, 530, 640, 557, 599, 528, 553, 735, 669, 560, 598, 620, 548, 580, 544, 575, 533, 558, 624, 573, 565, 536, 498, 512, 525, 530, 560, 521, 547, 520, 498, 548, 470, 521, 571, 549, 617, 568, 611, 665, 542, 621, 730, 666, 555, 539, 658, 643, 571, 619, 704, 669, 531, 479, 486, 505, 565, 615, 567, 585, 583, 544, 512, 529, 560, 577, 562, 575, 576, 535, 520, 491, 528, 592, 573, 598, 550, 455, 480, 575, 534, 529, 571, 618, 604, 535, 613, 671, 558, 501, 508, 569, 519, 444, 456, 518, 477, 467, 550, 563, 607, 567, 513, 532, 561, 485, 506, 555, 614, 539, 569, 527, 568, 495, 532, 661, 556, 555, 606, 581, 599, 555, 559, 575, 567, 564, 567, 519, 550, 557, 495, 531, 508, 515, 579, 527, 577, 521, 496, 572, 485, 555, 601, 531, 495, 542, 622, 628, 478, 539, 560, 501, 420, 517, 565, 542, 452, 510, 532, 511, 409, 478, 525, 453, 500, 516, 573, 559, 504, 497, 444, 485, 548, 537, 515, 561, 547, 544, 549, 553, 484, 454, 525, 557, 496, 529, 691, 612, 514, 535, 611, 596, 520, 572, 657, 624, 569, 671, 640, 517, 530, 588, 614, 600, 533, 672, 640, 556, 558, 618, 655, 592, 524, 597, 673, 619, 538, 581, 848, 769, 591, 637, 661, 634, 597, 549, 732, 723, 555, 639, 598, 614, 603, 583, 602, 594, 644, 656, 628, 632, 605, 600, 636, 618, 732, 841, 844, 688, 565, 588, 652, 695, 1364, 2987, 3127, 1539, 1096, 1373, 1971, 1542, 3512, 8521, 8967, 4116, 2430, 3607, 5199, 3697, 4835, 12242, 14084, 7565, 3237, 5253, 8007, 6841, 3175, 9751, 12055, 7075, 2132, 4178, 7066, 6455, 1563, 5713, 6855, 3861, 1167, 2317, 3381, 3040, 1161, 3121, 3525, 1979, 903, 1296, 1394, 1330, 787, 1670, 1891, 1065, 647, 916, 978, 829, 735, 972, 918, 715, 607, 692, 809, 653, 587, 655, 688, 624, 517, 515, 574, 570, 546, 737, 745, 631, 606, 613, 588, 516, 572, 646, 609, 507, 524, 649, 718, 584, 611, 643, 620, 531, 507, 624, 654, 583, 544, 617, 529, 471, 463, 576, 562, 469, 619, 606, 478, 584, 624, 660, 615, 574, 616, 593, 523, 659, 658, 707, 758, 600, 584, 533, 544, 588, 605, 636, 604, 549, 536, 635, 595, 569, 601, 658, 580, 458, 615, 628, 737, 723, 629, 651, 547, 582, 683, 703, 724, 720, 730, 681, 594, 583, 747, 789, 743, 630, 603, 662, 559, 546, 743, 1043, 1077, 723, 739, 813, 749, 683, 755, 1102, 1114, 798, 934, 999, 756, 651, 687, 855, 802, 708, 884, 888, 742, 586, 538, 650, 599, 547, 627, 700, 682, 555, 634, 682, 602, 638, 678, 557, 547, 582, 719, 778, 665, 710, 715, 581, 585, 604, 619, 762, 661, 654, 676, 656, 708, 621, 584, 642, 668, 704, 632, 600, 608, 604, 544, 528, 573, 656, 547, 468, 517, 550, 724, 588, 608, 693, 641, 474, 501, 689, 651, 523, 708, 758, 520, 521, 620, 705, 627, 526, 715, 747, 636, 621, 634, 713, 581, 527, 613, 586, 550, 567, 551, 600, 588, 609, 647, 616, 589, 627, 650, 587, 671, 627, 515, 586, 648, 678, 625, 526, 629, 640, 683, 639, 564, 615, 685, 609, 631, 636, 702, 742, 626, 563, 735, 693, 672, 640, 627, 735, 711, 670, 682, 656, 620, 686, 610, 607, 606, 670, 744, 658, 610, 594, 643, 596, 511, 572, 599, 626, 580, 643, 547, 581, 608, 555, 616, 540, 677, 747, 696, 681, 651, 611, 647, 667, 591, 665, 690, 594, 545, 465, 568, 636, 583, 656, 629, 531, 553, 596, 503, 574, 543, 655, 643, 550, 584, 710, 611, 511, 541, 611, 658, 613, 600, 627, 644, 580, 571, 692, 622, 558, 691, 620, 578, 562, 668, 664, 568, 615, 687, 588, 576, 604, 674, 572, 633, 691, 673, 561, 545, 679, 772, 682, 613, 701, 754, 750, 597, 632, 715, 579, 597, 689, 681, 692, 618, 656, 710, 613, 692, 678, 597, 647, 635, 658, 451, 423, 440, 478, 553, 568, 542, 513, 517, 540, 533, 496, 526, 612, 616, 544, 596, 628, 641, 598, 535, 695, 696, 634, 598, 569, 564, 599, 633, 581, 638, 634, 552, 506, 439, 490, 600, 568, 524, 518, 596, 547, 467, 493, 539, 532, 524, 557, 554, 622, 598, 527, 566, 588, 614, 595, 567, 578, 552, 522, 580, 568, 592, 674, 618, 644, 641, 578, 567, 586, 618, 614, 526, 520, 572, 595, 587, 625, 597, 544, 538, 590, 595, 614, 574, 560, 620, 530, 560, 599, 679, 678, 552, 625, 706, 651, 475, 657, 714, 654, 572, 649, 696, 566, 613, 611, 644, 649, 553, 632, 593, 553, 615, 618, 563, 512, 562, 690, 642, 533, 532, 568, 486, 523, 536, 598, 604, 587, 577, 587, 566, 571, 565, 605, 637, 578, 564, 621, 710, 642, 567, 569, 616, 591, 483, 565, 689, 575, 453, 540, 629, 559, 564, 660, 741, 633, 573, 639, 691, 643, 589, 663, 721, 597, 606, 629, 638, 675, 579, 680, 663, 543, 556, 601, 546, 551, 529, 717, 646, 545, 564, 620, 532, 478, 555, 613, 545, 566, 528, 570, 565, 441, 469, 496, 436, 504, 467, 356, 428, 444, 495, 495, 375, 398, 396, 468, 474, 473, 441, 515, 474, 401, 400, 511, 523, 443, 432, 459, 510, 466, 441, 454, 527, 465, 380, 393, 443, 457, 406, 330, 421, 453, 502, 482, 479, 511, 510, 461, 420, 506, 484, 426, 402, 444, 490, 464, 382, 439, 457, 472, 369, 390, 511, 453, 412, 437]"
-0.485868364572525,-0.22795583307743073,-0.0735398381948471,-0.48693183064460754,-0.31676360964775085,0.28603583574295044,-0.25718727707862854,-0.016130685806274414,-0.3293037414550781,21.25,-0.0062601566314697266,-0.4428863525390625,23.75,0.015483617782592773,-0.3902435302734375,19.75,0.06912779808044434,-0.3075599670410156,18.75,0.07613730430603027,-0.2590656280517578,19.25,"[596, 589, 629, 707, 750, 708, 631, 594, 553, 576, 653, 694, 646, 658, 622, 556, 514, 547, 550, 545, 534, 625, 599, 498, 483, 505, 511, 515, 541, 574, 585, 474, 503, 469, 444, 474, 480, 489, 491, 512, 549, 432, 444, 466, 525, 529, 471, 539, 427, 425, 515, 535, 513, 506, 498, 478, 514, 579, 514, 468, 523, 497, 463, 459, 518, 524, 470, 448, 558, 542, 472, 494, 499, 507, 609, 504, 528, 523, 440, 534, 520, 479, 532, 519, 506, 526, 526, 593, 570, 423, 452, 537, 580, 477, 499, 571, 580, 535, 465, 633, 643, 500, 506, 538, 526, 584, 453, 507, 582, 476, 481, 460, 464, 505, 526, 570, 540, 476, 444, 469, 442, 465, 608, 574, 527, 519, 542, 526, 524, 535, 469, 468, 562, 594, 539, 490, 582, 599, 504, 502, 572, 649, 586, 484, 613, 607, 617, 678, 581, 544, 509, 545, 593, 659, 646, 599, 603, 558, 652, 663, 537, 524, 497, 507, 580, 490, 564, 622, 534, 541, 508, 439, 546, 586, 622, 576, 567, 532, 546, 514, 532, 531, 549, 598, 510, 517, 555, 537, 531, 460, 466, 510, 535, 543, 575, 581, 526, 490, 496, 498, 535, 535, 606, 603, 516, 559, 600, 553, 582, 620, 606, 558, 545, 575, 607, 559, 652, 701, 612, 632, 661, 626, 578, 601, 596, 604, 608, 581, 631, 606, 521, 593, 575, 525, 520, 509, 630, 616, 513, 566, 571, 506, 498, 585, 648, 590, 560, 614, 579, 547, 506, 564, 628, 544, 563, 575, 564, 580, 499, 489, 588, 606, 511, 552, 669, 690, 551, 555, 615, 687, 608, 501, 634, 642, 545, 537, 545, 557, 572, 642, 572, 580, 578, 586, 577, 564, 548, 511, 541, 526, 491, 531, 579, 554, 537, 573, 484, 555, 554, 533, 591, 603, 552, 481, 472, 583, 583, 523, 559, 532, 533, 484, 523, 640, 615, 523, 529, 569, 531, 537, 554, 551, 556, 579, 528, 512, 529, 573, 651, 613, 567, 544, 554, 626, 565, 575, 776, 764, 779, 646, 689, 770, 614, 691, 1053, 1854, 2502, 1785, 1091, 1370, 1057, 1180, 1396, 3275, 4721, 3386, 1303, 2016, 1612, 1997, 1253, 3821, 5123, 3514, 1199, 2166, 1698, 1979, 1750, 3445, 3516, 1907, 1216, 2141, 1985, 1217, 2939, 6933, 6703, 2694, 2115, 3602, 4827, 3087, 3216, 8922, 9074, 3881, 2253, 3904, 5830, 3944, 2067, 5624, 5672, 2384, 1457, 2499, 3510, 2276, 1046, 2098, 1987, 915, 823, 1295, 1435, 862, 708, 874, 771, 635, 672, 717, 716, 579, 687, 725, 787, 816, 681, 680, 588, 572, 611, 651, 775, 752, 714, 725, 625, 651, 651, 669, 546, 495, 722, 675, 537, 586, 718, 754, 564, 538, 663, 671, 482, 463, 612, 607, 591, 588, 636, 598, 528, 553, 711, 590, 594, 703, 697, 527, 493, 669, 732, 635, 584, 623, 632, 571, 622, 691, 557, 523, 550, 590, 583, 545, 577, 638, 524, 518, 572, 631, 632, 536, 521, 582, 556, 601, 607, 521, 573, 618, 559, 499, 638, 725, 724, 666, 675, 695, 595, 584, 884, 1048, 993, 679, 800, 878, 719, 723, 1095, 2007, 2060, 1110, 1298, 1680, 1235, 788, 1248, 2615, 2769, 1683, 1714, 2186, 1639, 780, 1115, 1781, 1732, 1262, 1524, 1557, 1067, 638, 708, 857, 750, 761, 921, 850, 653, 551, 625, 661, 540, 506, 598, 618, 554, 493, 671, 695, 557, 533, 680, 695, 573, 536, 605, 665, 678, 638, 659, 610, 495, 526, 692, 747, 693, 643, 764, 642, 560, 586, 684, 814, 710, 679, 762, 652, 630, 567, 619, 733, 730, 671, 582, 512, 670, 616, 655, 667, 713, 658, 576, 653, 642, 650, 752, 631, 757, 708, 666, 649, 635, 727, 653, 678, 691, 621, 590, 589, 596, 575, 583, 540, 622, 575, 571, 514, 523, 601, 540, 621, 633, 673, 588, 537, 574, 500, 575, 592, 587, 624, 633, 583, 601, 542, 621, 589, 529, 571, 572, 517, 623, 663, 688, 675, 685, 663, 631, 578, 742, 782, 711, 725, 636, 576, 639, 608, 620, 621, 662, 681, 556, 519, 625, 657, 586, 540, 633, 620, 606, 582, 636, 629, 543, 600, 630, 611, 646, 645, 641, 599, 602, 605, 556, 607, 678, 654, 632, 517, 469, 595, 643, 595, 648, 628, 611, 593, 483, 601, 622, 511, 560, 610, 601, 602, 473, 571, 708, 545, 589, 707, 689, 611, 552, 665, 514, 538, 666, 621, 600, 632, 684, 633, 462, 554, 643, 606, 491, 547, 721, 652, 498, 466, 595, 642, 532, 463, 626, 596, 653, 616, 547, 609, 692, 536, 452, 579, 670, 664, 554, 581, 648, 599, 506, 592, 583, 637, 551, 562, 636, 593, 535, 514, 585, 509, 568, 611, 571, 494, 565, 566, 609, 614, 603, 632, 611, 637, 602, 541, 550, 622, 628, 628, 614, 583, 547, 603, 534, 578, 608, 539, 564, 514, 616, 636, 578, 527, 542, 523, 486, 546, 513, 546, 597, 656, 650, 602, 594, 578, 570, 554, 575, 599, 585, 675, 617, 540, 626, 598, 596, 560, 567, 645, 610, 655, 680, 657, 528, 607, 564, 511, 602, 600, 597, 549, 626, 554, 508, 619, 643, 569, 586, 672, 639, 557, 580, 665, 635, 634, 611, 663, 596, 616, 633, 634, 566, 564, 617, 619, 584, 518, 557, 586, 573, 574, 568, 552, 437, 534, 649, 647, 607, 654, 677, 555, 565, 582, 580, 592, 554, 579, 630, 581, 538, 641, 604, 591, 585, 594, 627, 560, 510, 554, 551, 545, 562, 563, 647, 586, 609, 508, 499, 571, 579, 538, 539, 622, 632, 526, 477, 576, 602, 565, 515, 636, 565, 617, 573, 543, 532, 515, 554, 508, 501, 444, 428, 503, 480, 423, 448, 458, 578, 502, 491, 605, 523, 459, 487, 542, 525, 442, 524, 601, 524, 473, 515, 552, 522, 495, 541, 566, 528, 581, 616, 556, 534, 438, 519, 535, 431, 448, 527, 566, 456, 472, 438, 458, 502, 422, 429, 503, 420, 472, 445, 403, 418, 454, 440, 454, 435, 443, 479, 435, 440, 415, 476, 523, 381, 416, 411, 351, 376, 402, 364, 407, 398, 389, 393, 360, 365, 403, 345, 385, 353, 314, 350, 410, 468, 424, 328, 327, 440, 393, 406, 370, 459, 471, 381, 392]"
-0.22772079706192017,-0.039012860506772995,0.3032014071941376,0.4168475866317749,0.10527221113443375,0.49067509174346924,0.8322447538375854,-0.12739348411560059,0.0,16.75,-0.11995482444763184,0.05106925964355469,20.75,-0.08075881004333496,0.10371208190917969,19.75,-0.08018660545349121,-0.3261566162109375,20.75,-0.035840749740600586,-0.21314620971679688,19.5,"[521, 604, 670, 572, 463, 573, 672, 605, 443, 528, 597, 685, 551, 560, 679, 548, 491, 617, 672, 667, 684, 725, 647, 500, 507, 489, 489, 447, 474, 538, 458, 460, 479, 457, 411, 424, 518, 554, 510, 499, 456, 421, 481, 554, 574, 472, 483, 479, 521, 612, 607, 553, 451, 500, 576, 498, 427, 506, 532, 542, 462, 555, 594, 459, 423, 450, 519, 515, 510, 584, 559, 490, 458, 547, 491, 613, 615, 520, 545, 476, 529, 578, 555, 524, 527, 584, 531, 500, 636, 579, 508, 457, 561, 591, 608, 580, 549, 574, 506, 444, 518, 537, 516, 517, 496, 518, 575, 482, 459, 437, 516, 528, 515, 499, 519, 529, 575, 535, 534, 478, 508, 531, 533, 529, 565, 536, 554, 503, 496, 584, 521, 516, 484, 524, 538, 482, 481, 543, 658, 631, 546, 521, 622, 619, 556, 546, 600, 670, 602, 482, 608, 664, 560, 487, 530, 553, 490, 475, 623, 702, 503, 529, 574, 499, 454, 499, 537, 563, 620, 564, 613, 657, 571, 482, 554, 629, 634, 650, 603, 568, 631, 576, 586, 616, 635, 647, 592, 581, 665, 642, 585, 574, 533, 527, 556, 536, 552, 601, 589, 622, 554, 565, 558, 536, 489, 547, 587, 551, 527, 510, 540, 502, 491, 501, 493, 604, 559, 541, 584, 561, 504, 513, 478, 577, 563, 538, 524, 516, 559, 613, 512, 496, 579, 526, 494, 514, 575, 550, 486, 518, 574, 570, 569, 517, 607, 575, 501, 580, 591, 562, 656, 627, 559, 555, 514, 508, 459, 486, 515, 466, 460, 498, 447, 414, 555, 581, 634, 562, 575, 574, 591, 586, 538, 567, 562, 492, 451, 509, 483, 482, 523, 547, 520, 421, 521, 502, 473, 495, 647, 653, 505, 498, 571, 554, 494, 529, 597, 615, 573, 535, 551, 572, 572, 607, 586, 570, 532, 543, 559, 491, 603, 619, 591, 586, 583, 538, 595, 591, 646, 645, 570, 575, 537, 539, 672, 685, 731, 729, 579, 520, 478, 617, 701, 646, 614, 629, 665, 1006, 1079, 739, 582, 721, 834, 821, 1196, 3389, 3831, 2042, 803, 1459, 2583, 2165, 1742, 5390, 6061, 3150, 1137, 2221, 3994, 3291, 2024, 4618, 5421, 3128, 1241, 1739, 3381, 3350, 2659, 4185, 5074, 3273, 1417, 1424, 2942, 3586, 2492, 5919, 6516, 3432, 1445, 2351, 3314, 2969, 1188, 4593, 5640, 3212, 853, 2371, 2632, 2194, 655, 2119, 3034, 1924, 697, 1555, 1327, 1239, 845, 1978, 2313, 1316, 854, 1484, 1215, 861, 736, 1604, 1805, 1039, 704, 1029, 802, 725, 669, 1033, 1158, 805, 654, 795, 632, 620, 702, 850, 884, 661, 716, 825, 630, 671, 652, 575, 691, 656, 661, 616, 583, 682, 584, 466, 604, 642, 503, 445, 473, 625, 589, 518, 556, 558, 515, 527, 542, 597, 628, 581, 641, 625, 487, 537, 585, 594, 529, 640, 730, 693, 549, 528, 522, 476, 568, 607, 599, 632, 543, 534, 510, 468, 516, 573, 599, 640, 548, 450, 486, 508, 548, 638, 689, 620, 515, 507, 579, 585, 552, 593, 606, 624, 540, 546, 666, 611, 616, 778, 746, 555, 673, 687, 562, 554, 895, 1636, 1667, 835, 828, 1219, 1009, 613, 946, 1732, 1844, 1039, 963, 1381, 1097, 617, 807, 1201, 1213, 878, 805, 864, 849, 676, 692, 743, 698, 601, 645, 556, 653, 656, 650, 635, 542, 615, 600, 512, 556, 583, 648, 701, 682, 752, 660, 586, 654, 576, 663, 763, 741, 715, 695, 729, 707, 611, 640, 688, 591, 660, 673, 765, 767, 612, 645, 665, 578, 666, 628, 592, 668, 603, 578, 586, 607, 597, 508, 583, 708, 646, 626, 622, 577, 631, 580, 694, 747, 673, 600, 646, 659, 670, 640, 606, 749, 652, 509, 563, 542, 526, 516, 584, 652, 599, 652, 648, 685, 612, 651, 674, 679, 664, 520, 635, 613, 462, 454, 670, 669, 446, 597, 656, 551, 605, 558, 587, 747, 581, 547, 705, 577, 552, 607, 719, 763, 573, 629, 609, 488, 582, 703, 655, 594, 633, 655, 520, 552, 678, 684, 547, 553, 654, 692, 594, 585, 672, 686, 617, 621, 694, 645, 616, 602, 609, 726, 605, 581, 680, 619, 622, 610, 574, 663, 580, 523, 605, 606, 595, 675, 628, 629, 616, 552, 667, 734, 643, 650, 598, 691, 744, 562, 622, 690, 545, 539, 624, 682, 672, 541, 625, 661, 542, 506, 526, 641, 583, 487, 635, 629, 593, 535, 585, 599, 551, 586, 662, 592, 539, 514, 605, 636, 546, 473, 536, 572, 571, 611, 614, 560, 519, 570, 624, 585, 658, 736, 633, 592, 617, 684, 692, 569, 648, 668, 575, 542, 666, 683, 575, 571, 574, 576, 557, 619, 636, 660, 625, 537, 510, 535, 543, 531, 531, 619, 650, 602, 611, 669, 559, 608, 705, 650, 584, 579, 616, 707, 603, 514, 677, 703, 599, 552, 622, 680, 598, 514, 609, 649, 585, 516, 576, 627, 579, 532, 579, 619, 593, 611, 585, 545, 583, 564, 566, 613, 572, 639, 599, 590, 631, 635, 555, 600, 631, 623, 620, 561, 604, 619, 614, 636, 587, 567, 550, 552, 571, 533, 497, 629, 678, 597, 607, 614, 616, 616, 521, 575, 661, 569, 653, 646, 578, 498, 629, 664, 609, 575, 619, 654, 615, 524, 590, 712, 632, 531, 577, 562, 546, 568, 597, 581, 505, 597, 592, 568, 553, 635, 648, 537, 590, 580, 620, 675, 529, 473, 548, 583, 594, 529, 549, 615, 545, 493, 531, 674, 683, 475, 560, 633, 568, 499, 636, 709, 626, 622, 660, 623, 580, 576, 569, 613, 614, 649, 623, 594, 545, 494, 507, 542, 610, 618, 590, 571, 623, 547, 620, 613, 616, 558, 568, 578, 605, 532, 493, 558, 561, 656, 560, 539, 547, 524, 468, 542, 620, 570, 525, 565, 563, 570, 555, 538, 531, 541, 510, 550, 540, 494, 525, 536, 547, 490, 433, 437, 524, 450, 389, 423, 506, 446, 508, 541, 469, 441, 449, 523, 494, 426, 439, 449, 376, 414, 453, 440, 458, 529, 523, 466, 413, 489, 470, 434, 497, 490, 453, 385, 414, 401, 385, 441, 481, 476, 439, 439, 445, 411, 394, 484, 493, 375, 447, 414, 348, 387, 419, 399, 400, 415, 435, 459, 405, 469, 427, 385, 425]"
-0.32453277707099915,0.10125663876533508,0.11224550008773804,0.188590869307518,0.32712191343307495,0.08002123236656189,0.44560664892196655,-0.06260740756988525,-0.27222633361816406,18.5,-0.05717146396636963,-0.2669334411621094,15.75,-0.03242361545562744,-0.258636474609375,16.5,-0.005243897438049316,0.05106925964355469,19.25,0.020505309104919434,-0.274658203125,16.75,"[484, 635, 703, 597, 499, 599, 703, 632, 458, 548, 660, 577, 567, 666, 728, 639, 579, 522, 575, 650, 678, 618, 546, 580, 554, 470, 530, 552, 579, 543, 493, 542, 455, 419, 434, 482, 422, 411, 412, 473, 551, 514, 576, 587, 494, 507, 516, 507, 498, 477, 551, 539, 478, 422, 436, 480, 579, 552, 535, 519, 552, 577, 508, 527, 573, 543, 579, 546, 612, 635, 531, 509, 640, 627, 618, 620, 630, 567, 536, 607, 597, 572, 562, 564, 505, 493, 520, 574, 546, 529, 495, 498, 481, 474, 422, 499, 487, 497, 514, 506, 530, 514, 527, 541, 537, 621, 550, 578, 636, 602, 628, 605, 491, 566, 586, 498, 537, 612, 580, 463, 512, 607, 526, 444, 511, 601, 541, 442, 519, 533, 500, 457, 516, 505, 495, 524, 551, 571, 520, 485, 539, 511, 520, 500, 461, 581, 545, 514, 437, 537, 560, 457, 595, 549, 510, 564, 539, 573, 533, 553, 609, 551, 519, 560, 544, 503, 484, 541, 531, 607, 590, 568, 528, 510, 518, 503, 497, 519, 553, 543, 578, 555, 499, 470, 547, 578, 564, 614, 620, 600, 523, 470, 530, 517, 481, 497, 592, 566, 484, 503, 483, 475, 544, 531, 492, 543, 483, 555, 523, 458, 528, 544, 552, 542, 519, 536, 533, 464, 577, 562, 560, 512, 575, 617, 487, 476, 488, 441, 473, 463, 525, 570, 566, 560, 536, 479, 536, 540, 477, 571, 523, 591, 527, 449, 484, 547, 527, 530, 539, 596, 464, 442, 510, 545, 557, 579, 496, 635, 532, 435, 501, 563, 639, 583, 520, 521, 504, 472, 555, 489, 624, 656, 578, 518, 569, 643, 626, 491, 565, 680, 632, 528, 501, 543, 596, 522, 551, 650, 563, 489, 507, 557, 548, 597, 580, 606, 539, 499, 520, 570, 472, 510, 559, 539, 495, 498, 454, 480, 500, 498, 477, 442, 621, 586, 527, 513, 548, 594, 546, 573, 631, 589, 573, 507, 545, 588, 542, 620, 586, 661, 626, 580, 538, 601, 629, 565, 661, 841, 825, 621, 616, 710, 734, 615, 693, 1887, 2512, 1632, 780, 1234, 1813, 1666, 867, 3406, 4752, 2933, 682, 1813, 3121, 3069, 693, 2714, 3470, 1990, 605, 1423, 2234, 2105, 1121, 3049, 3265, 1613, 1122, 2044, 2232, 1392, 2237, 4755, 4818, 2302, 1876, 3341, 3143, 1402, 2018, 3610, 4052, 2627, 1476, 2596, 2493, 1537, 977, 1321, 1990, 1757, 968, 868, 1148, 1317, 644, 623, 752, 744, 728, 596, 687, 786, 611, 843, 873, 661, 719, 698, 697, 641, 582, 766, 862, 679, 594, 658, 605, 546, 556, 621, 680, 600, 579, 654, 612, 514, 575, 600, 565, 560, 656, 644, 525, 435, 678, 655, 634, 631, 568, 569, 536, 595, 676, 664, 626, 678, 615, 592, 680, 639, 637, 521, 526, 580, 565, 658, 634, 610, 581, 543, 538, 552, 489, 583, 611, 578, 675, 647, 625, 673, 637, 583, 641, 699, 642, 621, 545, 552, 557, 590, 570, 528, 676, 692, 568, 571, 456, 546, 584, 543, 612, 604, 605, 544, 505, 578, 551, 589, 545, 616, 651, 517, 610, 587, 498, 560, 486, 603, 630, 499, 508, 604, 543, 490, 564, 711, 772, 692, 580, 682, 650, 535, 596, 536, 575, 669, 557, 519, 568, 601, 570, 501, 599, 613, 487, 575, 605, 630, 610, 579, 595, 574, 527, 629, 616, 619, 649, 633, 638, 631, 527, 622, 616, 581, 616, 595, 572, 633, 558, 568, 558, 543, 728, 665, 668, 679, 615, 584, 642, 681, 646, 647, 703, 634, 648, 630, 490, 621, 592, 622, 687, 692, 565, 591, 571, 575, 578, 672, 578, 617, 600, 566, 547, 528, 617, 645, 513, 584, 699, 649, 514, 494, 666, 588, 541, 546, 611, 583, 617, 674, 548, 537, 551, 515, 551, 553, 563, 616, 577, 542, 556, 575, 518, 466, 551, 622, 548, 575, 656, 611, 571, 617, 543, 527, 637, 541, 460, 576, 605, 649, 544, 515, 720, 643, 527, 666, 713, 611, 623, 671, 701, 605, 654, 799, 716, 576, 640, 690, 721, 597, 706, 835, 722, 674, 717, 773, 669, 598, 676, 749, 645, 595, 652, 707, 646, 583, 540, 637, 628, 565, 640, 650, 560, 607, 610, 561, 620, 632, 621, 540, 568, 605, 696, 615, 677, 688, 607, 597, 535, 573, 582, 570, 608, 622, 586, 587, 506, 526, 569, 592, 585, 551, 516, 541, 585, 505, 583, 631, 589, 603, 601, 628, 472, 457, 638, 623, 498, 563, 529, 489, 511, 542, 619, 579, 583, 584, 530, 507, 488, 497, 544, 494, 505, 633, 652, 572, 521, 559, 606, 550, 454, 637, 700, 605, 499, 533, 573, 467, 475, 623, 598, 542, 525, 533, 555, 471, 504, 525, 484, 495, 593, 599, 644, 622, 566, 574, 622, 597, 603, 546, 560, 521, 454, 528, 518, 552, 611, 567, 630, 598, 527, 518, 501, 591, 576, 431, 537, 544, 488, 499, 550, 644, 556, 572, 632, 492, 478, 483, 557, 622, 646, 628, 677, 548, 533, 556, 617, 729, 631, 573, 605, 599, 536, 529, 593, 602, 587, 528, 523, 588, 527, 510, 531, 574, 511, 466, 484, 463, 520, 536, 539, 563, 528, 492, 562, 587, 476, 451, 557, 620, 551, 561, 560, 617, 537, 572, 618, 578, 543, 553, 639, 650, 577, 621, 656, 566, 568, 603, 742, 743, 661, 640, 614, 557, 560, 675, 729, 568, 577, 724, 692, 598, 588, 617, 651, 570, 586, 615, 749, 760, 507, 565, 644, 528, 579, 629, 638, 638, 506, 638, 650, 501, 576, 626, 615, 563, 576, 574, 498, 456, 547, 502, 463, 555, 584, 529, 461, 531, 628, 524, 447, 598, 572, 431, 450, 537, 550, 419, 364, 571, 528, 517, 533, 514, 577, 487, 488, 578, 557, 482, 467, 473, 476, 503, 471, 575, 499, 505, 539, 514, 502, 508, 482, 533, 514, 477, 531, 562, 575, 522, 521, 574, 526, 458, 476, 484, 479, 433, 450, 535, 426, 470, 454, 407, 466, 490, 456, 455, 460, 459, 464, 443, 422, 465, 489, 455, 419, 373, 423, 465, 454, 383, 402, 423, 408, 389, 440, 464, 435, 391, 376, 415, 467, 393, 409, 420, 439, 402, 386, 444, 421, 443, 389, 341, 383, 394, 372, 380]"
-0.33687999844551086,-0.20170867443084717,-0.17634150385856628,0.16126440465450287,-0.14014829695224762,-0.4104020595550537,0.33750081062316895,-0.27715039253234863,-0.3172874450683594,24.75,-0.2293713092803955,-0.258636474609375,17.5,-0.19403767585754395,-0.4277229309082031,29.75,-0.11593174934387207,-0.3767967224121094,28.0,-0.05356144905090332,-0.3268718719482422,22.0,"[575, 651, 670, 584, 595, 587, 671, 657, 472, 565, 559, 658, 633, 538, 690, 601, 570, 540, 460, 588, 656, 655, 636, 576, 582, 466, 448, 589, 597, 596, 600, 604, 538, 462, 489, 602, 590, 472, 506, 552, 538, 495, 486, 500, 551, 562, 520, 523, 546, 570, 535, 499, 562, 644, 582, 513, 446, 534, 501, 410, 429, 521, 542, 467, 503, 546, 453, 426, 482, 555, 531, 482, 614, 673, 597, 559, 531, 595, 583, 533, 630, 644, 583, 605, 547, 542, 588, 594, 602, 611, 528, 560, 491, 510, 594, 510, 606, 602, 495, 527, 500, 529, 576, 483, 448, 538, 497, 434, 498, 570, 564, 456, 542, 506, 501, 550, 480, 536, 501, 498, 484, 528, 468, 500, 565, 564, 456, 409, 512, 509, 597, 605, 555, 498, 403, 463, 501, 514, 535, 592, 579, 531, 490, 570, 476, 548, 479, 485, 539, 488, 541, 505, 446, 495, 551, 538, 519, 547, 626, 578, 571, 549, 605, 585, 534, 608, 584, 555, 545, 699, 629, 540, 528, 617, 591, 512, 535, 593, 565, 553, 590, 548, 570, 570, 562, 519, 528, 543, 608, 547, 570, 580, 525, 503, 480, 520, 524, 553, 613, 579, 530, 515, 585, 678, 580, 508, 644, 640, 559, 484, 554, 668, 583, 489, 596, 664, 554, 521, 466, 469, 480, 504, 586, 580, 520, 505, 430, 505, 563, 502, 543, 573, 606, 571, 498, 507, 589, 567, 561, 652, 509, 599, 557, 446, 488, 543, 585, 584, 496, 553, 575, 504, 486, 513, 568, 519, 443, 443, 484, 460, 444, 476, 456, 431, 422, 411, 462, 517, 555, 457, 436, 528, 590, 517, 508, 529, 581, 554, 528, 566, 544, 572, 602, 596, 584, 629, 524, 528, 451, 511, 592, 538, 426, 501, 590, 573, 527, 510, 549, 569, 528, 545, 597, 550, 560, 528, 567, 633, 602, 574, 573, 568, 637, 604, 549, 601, 598, 543, 577, 568, 619, 566, 493, 590, 664, 572, 539, 594, 662, 723, 625, 552, 706, 736, 577, 566, 674, 1161, 1203, 824, 699, 938, 982, 810, 1329, 2352, 2455, 1534, 1049, 1488, 1917, 1638, 3143, 3788, 3347, 1825, 1665, 1964, 2722, 2949, 6489, 9061, 6242, 1614, 3401, 3753, 4269, 2944, 9297, 17193, 13783, 3042, 5094, 7008, 9293, 3671, 7279, 15559, 13703, 4214, 3835, 5598, 8287, 3897, 3421, 7645, 7157, 2650, 2101, 3196, 3920, 2164, 1389, 2874, 3012, 1623, 1264, 1945, 2050, 1370, 774, 1488, 1608, 1011, 771, 1201, 1419, 1056, 681, 897, 807, 714, 691, 892, 899, 682, 712, 633, 663, 685, 525, 696, 688, 570, 628, 574, 554, 635, 639, 586, 627, 617, 554, 574, 567, 537, 505, 564, 540, 512, 557, 674, 613, 480, 533, 554, 569, 507, 539, 647, 564, 558, 598, 605, 595, 541, 625, 549, 614, 626, 658, 601, 598, 676, 614, 593, 605, 622, 605, 633, 664, 654, 660, 690, 626, 608, 596, 652, 658, 646, 561, 627, 620, 538, 532, 639, 625, 539, 577, 646, 633, 593, 556, 622, 649, 549, 677, 658, 639, 561, 550, 649, 560, 553, 717, 916, 886, 596, 628, 687, 618, 584, 888, 1301, 1152, 613, 841, 843, 660, 622, 1102, 1377, 1149, 670, 821, 812, 745, 790, 710, 765, 715, 709, 647, 595, 647, 630, 596, 578, 628, 720, 670, 487, 475, 562, 583, 528, 577, 597, 637, 572, 548, 610, 639, 598, 542, 560, 618, 575, 505, 561, 603, 595, 574, 560, 605, 529, 575, 630, 657, 679, 654, 612, 574, 681, 785, 705, 608, 641, 599, 579, 541, 658, 726, 649, 565, 611, 652, 655, 594, 633, 725, 638, 633, 640, 656, 654, 620, 551, 658, 673, 621, 657, 560, 640, 661, 538, 658, 631, 483, 555, 615, 636, 639, 625, 580, 525, 514, 596, 602, 582, 632, 687, 616, 530, 600, 641, 563, 593, 672, 665, 609, 579, 613, 660, 579, 595, 610, 567, 598, 570, 608, 677, 655, 601, 533, 531, 647, 637, 593, 650, 673, 764, 537, 583, 746, 645, 710, 660, 672, 691, 612, 606, 725, 696, 635, 656, 712, 610, 605, 662, 686, 669, 625, 533, 599, 586, 553, 597, 601, 656, 646, 555, 500, 559, 588, 523, 608, 676, 608, 686, 598, 569, 612, 614, 623, 609, 663, 697, 645, 687, 647, 527, 530, 606, 616, 592, 579, 653, 654, 497, 557, 624, 638, 674, 585, 647, 655, 486, 629, 690, 615, 585, 508, 551, 502, 558, 513, 550, 571, 599, 570, 589, 549, 574, 559, 560, 497, 564, 560, 545, 580, 577, 581, 511, 420, 508, 613, 523, 520, 557, 615, 504, 450, 504, 695, 609, 559, 638, 571, 588, 596, 544, 622, 644, 622, 639, 536, 539, 551, 504, 524, 637, 630, 576, 512, 467, 616, 585, 640, 661, 584, 531, 521, 554, 639, 659, 760, 724, 592, 574, 626, 684, 565, 642, 675, 611, 504, 615, 645, 587, 580, 512, 606, 587, 484, 568, 623, 563, 650, 625, 579, 619, 586, 567, 595, 600, 594, 564, 554, 562, 518, 482, 525, 601, 573, 514, 563, 608, 595, 488, 583, 613, 536, 596, 558, 560, 562, 568, 562, 507, 532, 599, 629, 506, 479, 640, 675, 586, 529, 512, 555, 594, 549, 570, 648, 651, 623, 546, 597, 659, 607, 509, 557, 658, 560, 520, 547, 618, 571, 555, 506, 537, 565, 554, 688, 723, 640, 657, 600, 592, 626, 609, 645, 717, 643, 615, 611, 630, 651, 651, 617, 630, 629, 593, 553, 579, 533, 525, 534, 624, 549, 520, 511, 510, 493, 545, 619, 556, 498, 466, 549, 604, 537, 553, 543, 542, 495, 438, 533, 578, 570, 590, 582, 544, 558, 574, 577, 565, 443, 508, 567, 518, 568, 630, 559, 464, 562, 501, 442, 423, 529, 591, 463, 523, 506, 486, 456, 418, 556, 592, 487, 492, 432, 516, 523, 453, 531, 619, 538, 498, 432, 536, 544, 449, 514, 512, 491, 488, 451, 547, 579, 483, 507, 473, 505, 500, 384, 451, 500, 473, 474, 475, 419, 428, 393, 425, 496, 407, 379, 447, 448, 431, 373, 389, 403, 388, 373, 433, 449, 383, 380, 442, 364, 383, 353, 421, 487, 412, 391, 441, 428, 394, 342, 462, 532, 432, 400, 370, 415, 443, 356, 365, 441, 398]"
