posz,velx,vely,velz,accx,accy,accz,p1x,p1y,p1z,p2x,p2y,p2z,p3x,p3y,p3z,p4x,p4y,p4z,p5x,p5y,p5z,heatmap
0.1237901821732521,-0.2646026015281677,-0.27799972891807556,0.06190135329961777,-0.3675999045372009,-0.5842064619064331,-0.010570988059043884,0.008232474327087402,0.043773651123046875,25.0,0.011379599571228027,-0.044345855712890625,19.0,0.01695859432220459,0.0,21.75,0.025112509727478027,-0.2295970916748047,15.5,0.08247601985931396,-0.093841552734375,15.0,"[501, 636, 551, 579, 699, 582, 554, 635, 472, 524, 564, 606, 645, 591, 581, 587, 478, 500, 517, 533, 589, 638, 535, 480, 542, 581, 543, 505, 594, 523, 452, 504, 661, 618, 536, 596, 592, 526, 495, 510, 559, 546, 421, 447, 506, 542, 486, 512, 580, 515, 483, 444, 466, 525, 554, 605, 561, 501, 543, 505, 473, 482, 499, 544, 516, 549, 469, 413, 457, 475, 510, 505, 633, 518, 468, 416, 487, 563, 550, 554, 648, 580, 520, 567, 497, 537, 530, 558, 548, 589, 543, 549, 525, 544, 525, 524, 522, 491, 517, 512, 497, 530, 527, 560, 513, 526, 587, 475, 509, 596, 558, 544, 478, 490, 504, 455, 535, 558, 505, 519, 629, 573, 506, 501, 482, 525, 493, 557, 482, 504, 479, 445, 465, 441, 466, 466, 393, 562, 550, 470, 416, 471, 516, 430, 527, 602, 608, 544, 494, 592, 618, 475, 564, 612, 539, 578, 616, 628, 638, 497, 570, 588, 546, 623, 583, 561, 581, 540, 552, 536, 585, 653, 568, 523, 503, 546, 626, 563, 558, 603, 620, 537, 510, 563, 607, 691, 580, 528, 574, 529, 527, 567, 462, 648, 672, 533, 572, 635, 588, 584, 574, 673, 706, 645, 569, 598, 621, 595, 688, 731, 591, 619, 694, 626, 595, 623, 615, 626, 606, 560, 538, 467, 454, 585, 634, 671, 590, 496, 470, 521, 581, 594, 736, 814, 705, 565, 534, 685, 773, 674, 596, 718, 665, 527, 608, 726, 772, 596, 617, 628, 561, 641, 695, 727, 705, 668, 592, 588, 543, 562, 632, 600, 558, 645, 662, 657, 589, 562, 599, 603, 593, 643, 609, 576, 526, 547, 561, 613, 512, 537, 550, 549, 531, 572, 572, 624, 591, 525, 788, 1387, 1097, 624, 763, 1619, 1788, 981, 1723, 5282, 4819, 2719, 1181, 5797, 7639, 4372, 2200, 7714, 7458, 4236, 1345, 8003, 11044, 6711, 1437, 4315, 4562, 2814, 704, 3796, 5555, 3661, 657, 1290, 1767, 1773, 570, 2594, 3825, 2698, 866, 2059, 1782, 1351, 779, 2515, 3578, 2361, 649, 1252, 1278, 988, 751, 1301, 1743, 1264, 588, 931, 1189, 1080, 720, 1139, 1633, 1319, 635, 973, 1265, 1315, 745, 1284, 2011, 1558, 562, 832, 969, 958, 593, 1071, 1516, 1147, 515, 610, 593, 581, 560, 634, 688, 583, 590, 627, 567, 525, 657, 663, 605, 559, 482, 507, 490, 516, 571, 627, 642, 549, 569, 559, 634, 638, 558, 539, 596, 621, 555, 565, 557, 575, 523, 517, 597, 573, 683, 603, 542, 686, 616, 552, 698, 747, 605, 581, 576, 662, 537, 452, 617, 641, 534, 582, 579, 598, 567, 604, 628, 576, 601, 662, 597, 596, 573, 568, 544, 515, 667, 669, 525, 625, 660, 617, 537, 527, 716, 661, 528, 597, 586, 646, 577, 588, 607, 646, 620, 641, 530, 586, 627, 548, 657, 681, 738, 663, 572, 563, 657, 626, 613, 740, 688, 497, 582, 616, 563, 569, 591, 689, 623, 567, 645, 668, 660, 545, 631, 710, 634, 659, 677, 669, 637, 530, 580, 628, 643, 638, 577, 589, 593, 564, 531, 567, 682, 560, 519, 585, 687, 657, 470, 493, 536, 491, 482, 563, 652, 640, 508, 509, 506, 494, 512, 557, 565, 538, 571, 560, 616, 642, 600, 554, 600, 653, 527, 549, 573, 507, 518, 521, 517, 536, 545, 558, 639, 622, 597, 554, 573, 592, 625, 535, 611, 627, 622, 647, 557, 617, 590, 634, 652, 560, 529, 595, 505, 614, 600, 583, 558, 517, 585, 537, 528, 660, 542, 506, 537, 555, 580, 523, 508, 585, 551, 564, 674, 615, 549, 616, 630, 654, 526, 514, 663, 650, 651, 549, 539, 617, 584, 628, 661, 604, 615, 576, 549, 614, 561, 673, 681, 573, 632, 677, 612, 565, 524, 638, 644, 502, 587, 662, 616, 542, 644, 665, 737, 657, 588, 729, 719, 704, 687, 608, 718, 701, 638, 680, 714, 709, 537, 553, 600, 580, 604, 520, 580, 624, 569, 636, 529, 605, 614, 439, 603, 609, 703, 718, 541, 583, 647, 608, 586, 570, 657, 704, 634, 642, 614, 578, 648, 656, 565, 517, 571, 649, 625, 559, 608, 626, 609, 558, 577, 649, 582, 611, 662, 677, 663, 621, 535, 621, 610, 631, 678, 634, 547, 552, 583, 570, 540, 579, 655, 607, 464, 614, 632, 554, 529, 600, 652, 500, 526, 604, 488, 515, 554, 559, 579, 446, 551, 510, 543, 583, 538, 586, 556, 489, 558, 519, 551, 555, 546, 568, 516, 599, 512, 519, 505, 600, 664, 613, 618, 573, 544, 543, 527, 606, 669, 645, 573, 538, 565, 593, 575, 625, 587, 567, 547, 475, 508, 504, 563, 567, 495, 492, 488, 465, 496, 409, 442, 509, 455, 473, 501, 497, 657, 609, 563, 636, 707, 619, 578, 599, 649, 546, 519, 665, 691, 591, 503, 560, 605, 519, 549, 696, 709, 620, 601, 608, 530, 542, 523, 551, 638, 646, 606, 571, 623, 604, 476, 564, 696, 674, 536, 564, 641, 593, 524, 616, 573, 537, 491, 525, 634, 578, 570, 569, 588, 593, 575, 594, 591, 606, 563, 501, 550, 561, 531, 598, 606, 642, 625, 537, 579, 556, 608, 680, 508, 518, 588, 564, 580, 572, 589, 627, 512, 559, 573, 560, 578, 514, 530, 610, 500, 603, 677, 570, 519, 528, 556, 569, 695, 629, 675, 619, 605, 707, 793, 803, 708, 576, 629, 663, 639, 633, 686, 723, 614, 617, 665, 644, 579, 647, 654, 586, 424, 511, 600, 566, 519, 485, 537, 561, 499, 576, 584, 554, 536, 504, 534, 506, 587, 619, 522, 468, 516, 629, 627, 519, 546, 630, 584, 522, 486, 566, 604, 499, 500, 521, 543, 560, 472, 527, 585, 539, 516, 501, 494, 476, 419, 521, 549, 514, 466, 445, 449, 425, 479, 460, 448, 496, 439, 482, 499, 443, 434, 470, 551, 529, 459, 543, 559, 540, 453, 487, 514, 435, 441, 471, 470, 480, 452, 496, 530, 435, 498, 490, 421, 489, 508, 499, 479, 445, 490, 541, 559, 522, 481, 516, 529, 493, 361, 403, 539, 515, 435, 445, 545, 486, 434, 489, 450, 431, 447, 517, 532, 474, 412, 385, 405, 373, 364, 408, 410, 392, 512, 504, 419, 374, 465, 511, 471, 424]"
-0.01581820845603943,-0.14514464139938354,-0.25523146986961365,-0.28708213567733765,-0.14424929022789001,-0.4619768559932709,-0.42441844940185547,0.008890628814697266,0.19054412841796875,18.25,0.013325214385986328,0.0,24.25,0.013897418975830078,0.08869171142578125,19.25,0.016186237335205078,-0.08697509765625,22.75,0.04479646682739258,-0.1449108123779297,17.25,"[469, 619, 680, 627, 623, 628, 681, 617, 547, 706, 698, 624, 691, 714, 707, 595, 510, 509, 570, 589, 632, 580, 532, 572, 536, 470, 482, 455, 541, 548, 507, 540, 463, 462, 423, 441, 544, 523, 518, 465, 478, 548, 537, 545, 555, 546, 520, 500, 556, 457, 460, 629, 623, 504, 506, 558, 527, 451, 447, 524, 562, 492, 440, 523, 477, 437, 426, 522, 520, 397, 459, 513, 522, 482, 505, 549, 515, 523, 559, 546, 598, 617, 563, 574, 520, 609, 608, 492, 463, 478, 489, 526, 529, 535, 548, 538, 536, 438, 461, 522, 521, 482, 468, 509, 537, 540, 509, 486, 534, 553, 569, 569, 606, 542, 472, 569, 528, 493, 439, 517, 623, 631, 637, 571, 566, 566, 605, 604, 616, 538, 525, 606, 702, 593, 540, 613, 591, 522, 524, 484, 618, 588, 522, 615, 473, 556, 543, 437, 575, 613, 566, 515, 580, 637, 668, 614, 682, 693, 625, 585, 571, 611, 547, 508, 575, 603, 560, 529, 521, 539, 461, 535, 502, 509, 536, 482, 531, 545, 484, 599, 648, 555, 584, 564, 663, 748, 743, 652, 741, 702, 676, 705, 594, 816, 837, 647, 659, 745, 748, 605, 571, 605, 592, 522, 613, 645, 587, 542, 576, 495, 466, 486, 507, 515, 518, 521, 520, 518, 537, 551, 446, 459, 568, 531, 497, 526, 590, 530, 510, 558, 543, 504, 726, 634, 623, 611, 573, 549, 523, 720, 631, 581, 617, 595, 554, 562, 486, 587, 626, 593, 551, 506, 626, 687, 520, 531, 534, 535, 452, 497, 611, 578, 532, 543, 587, 517, 549, 656, 571, 452, 556, 618, 570, 519, 584, 640, 574, 532, 597, 555, 558, 567, 670, 619, 546, 671, 750, 657, 800, 1441, 1191, 759, 857, 2005, 2337, 1376, 2013, 4545, 3502, 1796, 1837, 5924, 7273, 3958, 1840, 5168, 4487, 2720, 1543, 6713, 8734, 5083, 612, 2609, 2716, 2097, 607, 3522, 4896, 3071, 796, 815, 1435, 1698, 727, 1529, 2707, 2214, 1348, 1439, 1894, 2608, 1355, 2272, 4509, 3896, 1179, 1574, 2070, 2400, 1225, 2210, 4138, 3469, 695, 1872, 1992, 1453, 731, 2214, 3325, 2450, 748, 1604, 1350, 1016, 711, 1822, 2630, 1807, 733, 859, 677, 684, 614, 788, 1109, 904, 660, 620, 710, 669, 579, 581, 596, 668, 572, 639, 625, 689, 635, 593, 599, 594, 590, 632, 534, 580, 604, 522, 552, 567, 607, 612, 539, 565, 667, 676, 587, 469, 618, 597, 581, 609, 684, 625, 514, 546, 659, 587, 567, 578, 616, 584, 524, 516, 598, 568, 526, 498, 581, 573, 491, 559, 511, 538, 597, 592, 587, 605, 597, 583, 528, 597, 619, 590, 639, 750, 749, 589, 657, 774, 683, 617, 636, 722, 778, 592, 663, 707, 608, 567, 582, 541, 587, 591, 572, 609, 525, 563, 581, 578, 660, 631, 600, 666, 568, 589, 637, 642, 720, 613, 591, 684, 623, 610, 688, 689, 623, 520, 557, 616, 683, 652, 684, 620, 570, 584, 605, 654, 580, 592, 643, 600, 588, 558, 661, 644, 592, 488, 483, 595, 599, 541, 631, 633, 535, 536, 474, 642, 647, 544, 583, 534, 587, 608, 523, 492, 562, 602, 513, 627, 654, 597, 566, 587, 596, 585, 588, 629, 678, 592, 588, 570, 516, 586, 651, 581, 602, 585, 560, 655, 564, 550, 562, 605, 660, 584, 561, 630, 612, 522, 537, 572, 635, 497, 527, 560, 547, 549, 634, 638, 670, 577, 462, 589, 560, 521, 580, 647, 639, 621, 539, 634, 670, 570, 575, 572, 615, 650, 568, 557, 533, 571, 676, 594, 497, 604, 606, 549, 668, 709, 780, 819, 698, 717, 647, 645, 776, 765, 712, 744, 756, 674, 641, 698, 738, 701, 585, 657, 646, 688, 651, 628, 676, 601, 562, 682, 615, 571, 546, 703, 781, 594, 636, 689, 620, 610, 648, 610, 696, 611, 552, 622, 483, 486, 478, 530, 593, 453, 568, 593, 593, 549, 527, 560, 635, 511, 574, 542, 604, 581, 495, 635, 650, 584, 658, 684, 625, 511, 601, 679, 603, 576, 632, 659, 521, 565, 708, 649, 608, 611, 692, 627, 580, 661, 655, 614, 606, 667, 669, 628, 659, 717, 699, 549, 557, 650, 570, 649, 667, 673, 639, 612, 604, 606, 582, 610, 724, 717, 647, 592, 643, 647, 580, 568, 604, 576, 470, 552, 591, 578, 703, 674, 624, 570, 510, 641, 657, 660, 605, 584, 658, 642, 553, 577, 585, 587, 525, 549, 577, 563, 529, 522, 565, 530, 602, 675, 586, 530, 553, 681, 612, 426, 603, 650, 610, 569, 539, 620, 617, 510, 541, 420, 530, 534, 468, 526, 522, 537, 546, 432, 526, 545, 534, 530, 585, 608, 540, 407, 460, 567, 506, 493, 564, 597, 587, 531, 581, 597, 513, 571, 641, 588, 525, 539, 558, 567, 476, 512, 530, 589, 555, 497, 572, 530, 530, 511, 474, 540, 574, 577, 629, 603, 521, 470, 463, 582, 652, 624, 601, 619, 584, 515, 568, 626, 612, 527, 625, 703, 619, 566, 620, 674, 600, 500, 557, 588, 573, 583, 643, 635, 605, 614, 582, 543, 565, 608, 586, 534, 699, 703, 656, 573, 576, 624, 642, 641, 521, 583, 590, 542, 522, 632, 619, 547, 437, 471, 539, 480, 441, 486, 515, 472, 427, 554, 588, 522, 526, 576, 558, 489, 515, 520, 597, 540, 489, 484, 606, 612, 534, 555, 533, 542, 549, 518, 608, 639, 624, 662, 631, 590, 637, 743, 700, 596, 616, 671, 689, 516, 542, 654, 682, 674, 560, 653, 710, 552, 521, 654, 655, 658, 591, 620, 656, 551, 497, 582, 549, 570, 473, 491, 546, 525, 527, 471, 448, 482, 449, 489, 516, 490, 513, 567, 533, 524, 475, 490, 500, 512, 488, 456, 464, 468, 458, 475, 523, 534, 500, 482, 451, 420, 466, 493, 510, 473, 499, 544, 496, 445, 516, 598, 526, 448, 477, 520, 529, 478, 670, 673, 633, 573, 490, 657, 809, 758, 774, 892, 783, 602, 616, 766, 785, 668, 626, 733, 706, 590, 556, 610, 646, 625, 493, 520, 487, 437, 438, 485, 502, 528, 428, 491, 497, 496, 482, 499, 447, 408, 471, 431, 438, 499, 503, 461, 476, 507, 409, 356, 354, 470, 495, 398, 341, 422]"
0.08757823705673218,-0.16477526724338531,-0.3430802822113037,0.03882671892642975,-0.14264045655727386,-0.4566754996776581,0.0655413419008255,0.025307655334472656,0.13418197631835938,21.25,0.03260326385498047,0.1746654510498047,24.0,0.059067726135253906,0.1373291015625,19.25,0.06564807891845703,0.0,24.25,0.0773782730102539,-0.12831687927246094,17.75,"[384, 473, 605, 582, 515, 580, 608, 472, 472, 555, 612, 659, 604, 610, 605, 533, 490, 535, 551, 502, 524, 553, 564, 557, 535, 445, 576, 570, 464, 443, 465, 508, 504, 465, 476, 473, 475, 541, 526, 511, 568, 519, 485, 529, 520, 487, 456, 532, 606, 542, 500, 537, 488, 474, 424, 482, 529, 461, 480, 531, 532, 523, 499, 474, 447, 528, 457, 441, 494, 476, 469, 408, 503, 573, 600, 540, 522, 538, 552, 516, 617, 608, 554, 520, 549, 598, 545, 574, 483, 528, 624, 526, 500, 534, 589, 592, 547, 514, 580, 571, 499, 481, 571, 615, 488, 520, 562, 467, 455, 494, 591, 572, 568, 505, 537, 550, 556, 550, 547, 585, 574, 506, 454, 510, 521, 478, 473, 478, 515, 474, 479, 533, 566, 617, 499, 454, 591, 541, 547, 477, 533, 628, 559, 589, 603, 558, 597, 517, 602, 589, 618, 682, 558, 670, 693, 613, 648, 686, 636, 536, 589, 594, 552, 541, 575, 542, 535, 514, 669, 702, 642, 589, 588, 558, 548, 599, 577, 696, 831, 611, 603, 684, 663, 666, 670, 882, 848, 643, 722, 714, 614, 577, 766, 766, 649, 644, 718, 674, 506, 539, 692, 756, 676, 624, 601, 702, 674, 608, 599, 589, 586, 572, 590, 637, 617, 605, 558, 563, 572, 543, 526, 536, 542, 535, 535, 550, 485, 423, 529, 601, 588, 555, 527, 483, 507, 438, 469, 493, 539, 570, 615, 628, 605, 525, 481, 519, 580, 606, 555, 529, 585, 648, 634, 533, 541, 623, 611, 545, 544, 680, 686, 544, 581, 591, 634, 598, 572, 663, 650, 566, 604, 617, 665, 637, 579, 651, 655, 567, 642, 633, 716, 695, 548, 666, 840, 959, 887, 631, 2262, 3262, 1829, 807, 1765, 4137, 4396, 1860, 3552, 6554, 4191, 1894, 2310, 7717, 9498, 4856, 2333, 5333, 3850, 3050, 1546, 6295, 9205, 5832, 1398, 2702, 2745, 3494, 1778, 3796, 6712, 5157, 1101, 2043, 2562, 2786, 1136, 3367, 5621, 4290, 852, 1632, 1914, 1501, 734, 2400, 3418, 2458, 660, 829, 1056, 770, 631, 1085, 1231, 998, 628, 600, 715, 596, 490, 564, 735, 770, 619, 744, 762, 667, 513, 654, 842, 754, 616, 719, 707, 578, 609, 769, 715, 563, 604, 674, 699, 666, 605, 751, 681, 497, 601, 608, 681, 579, 616, 583, 595, 562, 628, 588, 612, 619, 627, 597, 569, 619, 616, 571, 575, 596, 661, 616, 556, 662, 557, 586, 573, 519, 578, 669, 606, 503, 626, 676, 598, 659, 652, 676, 659, 566, 518, 611, 612, 624, 584, 514, 623, 576, 542, 611, 612, 579, 619, 577, 680, 629, 611, 705, 647, 607, 566, 591, 644, 573, 597, 684, 660, 547, 606, 598, 543, 551, 539, 496, 576, 565, 534, 534, 634, 623, 630, 546, 544, 509, 599, 651, 650, 669, 548, 473, 536, 563, 602, 637, 570, 593, 528, 496, 476, 566, 557, 594, 612, 536, 606, 644, 558, 567, 607, 562, 598, 495, 511, 590, 571, 543, 592, 511, 523, 580, 486, 498, 585, 530, 558, 629, 594, 658, 545, 595, 566, 544, 546, 603, 537, 549, 527, 530, 578, 509, 456, 555, 561, 594, 527, 528, 624, 547, 485, 609, 692, 683, 624, 604, 616, 547, 514, 617, 622, 644, 600, 553, 526, 567, 510, 496, 497, 555, 616, 604, 537, 573, 489, 513, 596, 592, 699, 641, 569, 552, 496, 639, 636, 651, 589, 567, 579, 561, 513, 521, 557, 602, 595, 601, 669, 617, 531, 618, 661, 623, 579, 543, 600, 596, 541, 652, 689, 638, 549, 638, 624, 558, 591, 629, 584, 579, 650, 668, 484, 526, 646, 566, 526, 518, 560, 621, 615, 607, 558, 554, 554, 537, 552, 605, 618, 560, 565, 551, 525, 534, 592, 641, 559, 552, 598, 622, 628, 559, 527, 586, 605, 642, 638, 641, 634, 566, 663, 686, 590, 564, 620, 708, 747, 663, 674, 684, 619, 650, 655, 573, 645, 659, 725, 591, 629, 786, 774, 577, 589, 741, 591, 579, 647, 665, 622, 661, 623, 608, 546, 638, 648, 556, 557, 600, 601, 530, 532, 632, 600, 491, 561, 636, 638, 534, 561, 651, 538, 484, 564, 650, 622, 471, 563, 628, 535, 503, 562, 626, 611, 497, 640, 651, 671, 564, 592, 674, 664, 605, 695, 586, 587, 542, 581, 660, 616, 654, 661, 576, 559, 509, 522, 540, 562, 645, 657, 566, 555, 578, 553, 590, 566, 592, 576, 562, 578, 573, 520, 583, 558, 528, 662, 553, 522, 634, 655, 660, 589, 618, 625, 571, 538, 591, 580, 546, 541, 555, 488, 534, 571, 567, 532, 568, 581, 526, 525, 648, 588, 530, 577, 639, 621, 550, 538, 525, 500, 550, 603, 532, 525, 585, 670, 650, 542, 495, 708, 620, 529, 653, 643, 597, 536, 441, 592, 562, 479, 602, 565, 593, 518, 548, 653, 634, 461, 507, 541, 506, 532, 558, 567, 601, 547, 505, 621, 558, 570, 558, 573, 596, 602, 595, 578, 568, 592, 563, 535, 574, 571, 559, 534, 533, 620, 607, 618, 603, 647, 630, 661, 600, 600, 618, 644, 636, 637, 656, 562, 554, 584, 551, 576, 638, 631, 561, 645, 629, 608, 583, 627, 700, 584, 549, 623, 599, 693, 685, 634, 705, 646, 547, 588, 609, 559, 636, 550, 589, 587, 606, 585, 542, 535, 576, 577, 566, 595, 595, 485, 661, 716, 622, 514, 560, 692, 610, 492, 571, 691, 648, 536, 556, 653, 632, 566, 528, 564, 594, 558, 499, 615, 627, 529, 569, 645, 631, 517, 557, 665, 638, 575, 628, 584, 537, 483, 486, 577, 555, 622, 599, 613, 564, 465, 452, 504, 636, 452, 514, 572, 510, 395, 480, 573, 551, 538, 524, 630, 646, 526, 503, 619, 604, 507, 499, 607, 635, 542, 528, 560, 528, 488, 494, 450, 525, 510, 429, 489, 537, 393, 431, 438, 393, 391, 369, 415, 446, 400, 430, 502, 453, 390, 433, 487, 479, 464, 463, 435, 466, 474, 439, 428, 430, 517, 419, 400, 387, 408, 428, 437, 533, 468, 349, 341, 408, 429, 410, 412, 507, 391, 331, 389, 434, 401, 336, 409, 469, 437, 418, 363, 465, 438, 348, 394, 394, 436, 433, 382, 381, 376, 381, 386, 360]"
0.0949896052479744,-0.12222561240196228,-0.37054455280303955,0.054470520466566086,-0.06658880412578583,-0.4427393078804016,0.07783981412649155,0.023743391036987305,0.18167495727539062,21.75,0.03733325004577637,0.13289451599121094,17.5,0.04734683036804199,0.13790130615234375,22.5,0.055786848068237305,0.04305839538574219,16.5,0.06866145133972168,0.0,17.25,"[512, 615, 679, 739, 751, 734, 677, 613, 536, 590, 654, 672, 636, 654, 652, 537, 535, 607, 559, 591, 603, 583, 523, 473, 558, 543, 545, 533, 513, 528, 537, 544, 481, 527, 482, 498, 432, 460, 567, 520, 490, 483, 499, 582, 541, 518, 511, 486, 513, 441, 505, 633, 611, 584, 516, 543, 443, 410, 523, 640, 545, 515, 540, 522, 457, 441, 462, 495, 438, 463, 451, 455, 484, 465, 458, 441, 459, 486, 459, 480, 417, 400, 471, 445, 466, 491, 429, 423, 487, 452, 462, 515, 535, 494, 450, 475, 518, 460, 469, 514, 488, 482, 467, 481, 530, 523, 581, 611, 524, 596, 612, 522, 514, 542, 619, 688, 534, 574, 694, 574, 491, 463, 513, 537, 548, 514, 588, 583, 547, 508, 501, 501, 509, 541, 522, 525, 675, 593, 690, 731, 547, 537, 616, 667, 625, 595, 679, 642, 588, 607, 634, 609, 517, 610, 627, 598, 585, 553, 615, 578, 513, 527, 489, 480, 587, 559, 573, 582, 505, 576, 587, 563, 584, 544, 589, 602, 726, 887, 724, 570, 653, 550, 633, 663, 698, 740, 673, 644, 585, 508, 611, 692, 640, 640, 549, 538, 537, 588, 526, 561, 607, 683, 557, 481, 586, 641, 555, 529, 505, 548, 567, 556, 570, 496, 572, 567, 489, 500, 523, 485, 451, 460, 550, 591, 543, 577, 566, 511, 442, 496, 510, 469, 597, 615, 533, 448, 482, 580, 566, 553, 589, 627, 535, 469, 579, 659, 562, 547, 566, 539, 520, 497, 506, 552, 555, 569, 530, 553, 517, 537, 549, 530, 464, 492, 483, 547, 568, 515, 544, 530, 472, 478, 530, 604, 594, 521, 547, 607, 547, 445, 571, 725, 623, 460, 591, 766, 721, 563, 812, 1474, 1182, 717, 743, 1848, 2223, 1273, 908, 2273, 1740, 1146, 665, 2569, 3658, 2258, 1089, 1857, 1529, 2163, 1147, 2245, 4010, 3044, 1776, 1787, 3248, 4266, 2031, 3023, 6385, 5533, 1831, 2249, 4015, 4753, 2043, 3536, 7313, 6278, 1053, 1718, 2825, 3026, 1413, 2105, 4354, 3709, 702, 856, 1174, 1048, 715, 748, 1245, 1213, 784, 685, 760, 830, 708, 570, 851, 948, 723, 785, 810, 751, 629, 544, 759, 766, 721, 777, 631, 655, 637, 537, 669, 670, 656, 677, 588, 657, 642, 667, 644, 517, 569, 636, 561, 501, 600, 665, 602, 469, 507, 505, 505, 547, 576, 485, 535, 601, 616, 641, 617, 708, 746, 609, 620, 660, 576, 652, 579, 605, 702, 721, 625, 588, 608, 711, 570, 590, 674, 689, 580, 507, 587, 601, 578, 582, 663, 609, 504, 523, 586, 638, 631, 593, 594, 667, 661, 594, 591, 628, 643, 556, 490, 591, 662, 670, 658, 675, 644, 606, 554, 618, 652, 656, 553, 634, 697, 560, 563, 702, 548, 483, 517, 585, 585, 523, 547, 623, 519, 469, 639, 637, 703, 648, 570, 564, 461, 598, 592, 608, 626, 578, 479, 461, 424, 534, 576, 594, 586, 555, 522, 596, 507, 543, 598, 631, 556, 564, 652, 629, 574, 562, 641, 559, 559, 587, 619, 532, 626, 686, 638, 599, 591, 594, 608, 587, 654, 746, 513, 591, 598, 557, 515, 537, 629, 588, 510, 525, 540, 556, 555, 507, 552, 572, 528, 522, 578, 559, 527, 520, 566, 573, 658, 600, 748, 709, 536, 540, 607, 719, 671, 537, 640, 652, 635, 593, 551, 703, 542, 594, 725, 606, 691, 809, 654, 607, 606, 647, 700, 639, 665, 711, 645, 603, 563, 649, 661, 586, 636, 724, 724, 658, 577, 574, 587, 572, 469, 617, 602, 583, 588, 652, 669, 655, 565, 556, 593, 531, 581, 660, 675, 644, 553, 637, 650, 489, 629, 723, 671, 635, 536, 684, 744, 607, 576, 615, 682, 659, 570, 670, 710, 525, 697, 715, 692, 665, 683, 768, 676, 565, 627, 677, 628, 611, 622, 701, 692, 605, 668, 632, 475, 503, 668, 690, 609, 559, 489, 503, 579, 571, 550, 574, 607, 553, 576, 526, 567, 550, 526, 655, 627, 548, 612, 612, 594, 538, 670, 765, 659, 513, 545, 540, 615, 669, 667, 716, 635, 555, 601, 558, 591, 720, 634, 476, 600, 648, 622, 581, 573, 694, 569, 505, 656, 674, 476, 548, 624, 583, 551, 543, 592, 621, 551, 609, 549, 500, 556, 623, 573, 474, 573, 604, 600, 589, 531, 663, 625, 461, 619, 598, 589, 590, 527, 670, 699, 596, 695, 600, 594, 598, 615, 605, 589, 637, 582, 529, 579, 523, 599, 615, 551, 612, 607, 678, 621, 508, 539, 601, 539, 536, 562, 669, 682, 626, 576, 583, 605, 552, 516, 534, 562, 535, 571, 548, 544, 527, 666, 567, 508, 593, 627, 606, 567, 616, 592, 520, 529, 549, 604, 573, 505, 528, 475, 492, 557, 480, 532, 561, 522, 496, 526, 599, 604, 475, 512, 558, 489, 495, 590, 640, 598, 463, 505, 580, 549, 543, 595, 544, 562, 540, 507, 560, 572, 565, 550, 602, 625, 601, 619, 595, 558, 560, 529, 746, 667, 611, 615, 543, 542, 518, 554, 752, 664, 495, 547, 597, 558, 521, 530, 577, 558, 581, 578, 519, 609, 603, 487, 452, 542, 595, 544, 489, 558, 600, 501, 459, 476, 533, 607, 578, 520, 540, 574, 558, 531, 536, 674, 601, 630, 672, 577, 475, 501, 565, 598, 473, 551, 646, 603, 472, 499, 627, 573, 492, 554, 588, 551, 511, 539, 552, 508, 464, 550, 627, 568, 525, 629, 655, 543, 473, 541, 656, 587, 576, 716, 647, 563, 539, 611, 653, 552, 603, 646, 572, 575, 581, 604, 587, 582, 548, 525, 529, 562, 565, 500, 492, 530, 538, 556, 546, 595, 559, 511, 539, 498, 527, 529, 481, 528, 492, 507, 540, 517, 532, 585, 576, 510, 507, 558, 549, 538, 474, 512, 542, 532, 470, 550, 605, 414, 470, 526, 535, 454, 439, 466, 449, 432, 425, 462, 541, 476, 363, 412, 432, 463, 424, 434, 519, 464, 434, 399, 406, 492, 468, 485, 473, 452, 464, 451, 470, 428, 413, 421, 483, 486, 462, 424, 432, 426, 408, 425, 413, 387, 387, 429, 442, 407, 350, 365, 411, 377, 362, 392, 414, 375, 421, 403, 378, 399, 414, 425, 431, 391, 458, 402, 377, 451, 490, 471, 408]"
0.14360058307647705,0.015758231282234192,0.28119999170303345,-0.02120669186115265,0.20681466162204742,0.7720426917076111,-0.09591437876224518,0.016035079956054688,0.13031959533691406,29.25,0.024045944213867188,-0.04405975341796875,22.25,0.03377342224121094,0.12831687927246094,23.25,0.03405952453613281,0.0,29.5,0.04321479797363281,0.14190673828125,17.0,"[487, 590, 589, 505, 479, 507, 588, 586, 466, 543, 562, 604, 541, 568, 643, 593, 482, 516, 567, 543, 571, 608, 547, 536, 441, 480, 504, 461, 444, 467, 501, 513, 429, 492, 508, 427, 438, 456, 422, 426, 467, 503, 524, 481, 511, 498, 443, 370, 494, 558, 527, 506, 545, 520, 575, 478, 590, 590, 483, 460, 527, 598, 598, 493, 582, 630, 474, 486, 515, 551, 553, 488, 556, 571, 526, 464, 535, 557, 609, 576, 570, 636, 699, 561, 574, 636, 604, 604, 440, 598, 662, 569, 614, 656, 580, 508, 416, 519, 579, 478, 551, 632, 533, 453, 402, 473, 514, 513, 565, 592, 539, 500, 473, 576, 623, 618, 619, 555, 570, 536, 498, 449, 517, 522, 516, 486, 466, 469, 448, 471, 545, 513, 496, 516, 470, 462, 585, 628, 572, 531, 640, 632, 555, 524, 496, 595, 592, 586, 596, 516, 553, 560, 498, 553, 509, 567, 561, 513, 631, 604, 616, 658, 505, 539, 521, 574, 606, 560, 524, 513, 495, 525, 540, 509, 556, 545, 518, 501, 530, 577, 550, 528, 545, 554, 446, 498, 519, 538, 540, 488, 539, 532, 543, 560, 565, 523, 566, 536, 510, 532, 544, 532, 548, 540, 579, 512, 519, 630, 526, 504, 520, 606, 620, 560, 519, 590, 455, 523, 516, 528, 621, 555, 508, 481, 491, 467, 459, 539, 522, 513, 546, 529, 492, 573, 516, 523, 537, 520, 518, 469, 510, 571, 517, 446, 451, 519, 543, 471, 561, 523, 503, 528, 523, 486, 459, 507, 491, 551, 557, 583, 479, 449, 486, 457, 510, 624, 632, 651, 576, 485, 484, 474, 515, 621, 686, 706, 521, 516, 568, 495, 949, 1177, 849, 679, 718, 1359, 1384, 658, 1817, 4568, 3455, 2449, 1371, 5861, 7583, 4190, 2486, 8428, 6911, 5742, 2082, 10943, 15401, 9483, 1894, 7279, 6544, 6471, 2361, 9612, 14868, 10103, 808, 3137, 3061, 3107, 1291, 3953, 6739, 4899, 1406, 1469, 2497, 2559, 1428, 1436, 3185, 3147, 1579, 1655, 3247, 3360, 1391, 2335, 4619, 4162, 1157, 1690, 2609, 2235, 893, 1734, 2822, 2504, 1046, 1586, 1592, 1184, 900, 1122, 1244, 952, 909, 1276, 982, 673, 783, 1045, 1143, 672, 693, 837, 744, 613, 697, 991, 946, 700, 583, 615, 705, 577, 592, 715, 746, 705, 646, 626, 587, 612, 621, 652, 736, 710, 588, 679, 541, 547, 617, 631, 676, 611, 552, 585, 590, 546, 579, 598, 655, 653, 563, 601, 684, 544, 559, 597, 645, 703, 552, 647, 691, 628, 577, 585, 617, 616, 664, 704, 594, 681, 741, 632, 562, 580, 711, 650, 577, 649, 627, 595, 604, 675, 652, 620, 589, 531, 581, 537, 621, 740, 639, 604, 574, 633, 608, 458, 620, 719, 673, 646, 504, 639, 617, 472, 605, 591, 589, 538, 598, 687, 632, 619, 660, 594, 575, 555, 561, 624, 648, 670, 604, 560, 585, 627, 602, 624, 553, 561, 654, 637, 595, 828, 833, 580, 652, 723, 732, 654, 675, 984, 1064, 701, 772, 902, 688, 584, 715, 855, 994, 773, 678, 777, 663, 749, 525, 624, 589, 517, 593, 686, 651, 565, 551, 563, 531, 551, 557, 576, 616, 588, 589, 533, 525, 658, 630, 575, 605, 639, 505, 515, 595, 652, 525, 590, 672, 583, 635, 656, 601, 631, 614, 624, 631, 574, 558, 598, 677, 669, 648, 657, 667, 604, 550, 521, 572, 640, 676, 703, 679, 599, 592, 613, 579, 584, 717, 728, 691, 630, 609, 671, 694, 612, 531, 654, 837, 716, 693, 921, 904, 718, 602, 727, 926, 778, 644, 746, 805, 658, 535, 612, 805, 812, 564, 611, 563, 596, 563, 559, 671, 655, 596, 636, 564, 625, 634, 645, 604, 565, 647, 585, 551, 618, 587, 558, 593, 631, 653, 652, 605, 635, 602, 666, 616, 515, 626, 777, 695, 570, 595, 707, 742, 548, 651, 827, 670, 540, 479, 687, 755, 606, 631, 771, 701, 562, 601, 632, 734, 677, 759, 766, 645, 649, 720, 620, 692, 750, 653, 710, 590, 652, 591, 620, 625, 574, 674, 690, 597, 594, 626, 683, 614, 529, 663, 622, 584, 575, 642, 638, 583, 557, 595, 608, 695, 683, 637, 674, 683, 591, 578, 671, 629, 590, 695, 765, 636, 494, 621, 567, 615, 642, 596, 616, 669, 652, 664, 595, 651, 687, 537, 517, 679, 683, 561, 603, 682, 709, 550, 507, 558, 563, 527, 576, 675, 674, 612, 662, 564, 519, 531, 616, 712, 573, 577, 716, 658, 570, 485, 534, 630, 592, 557, 603, 600, 553, 505, 545, 686, 638, 506, 541, 614, 585, 512, 563, 639, 552, 566, 624, 580, 556, 656, 649, 655, 558, 526, 552, 473, 620, 653, 568, 579, 646, 601, 539, 503, 616, 610, 563, 551, 619, 595, 593, 544, 550, 509, 475, 553, 632, 536, 548, 639, 623, 551, 616, 631, 651, 626, 617, 733, 674, 691, 598, 601, 616, 643, 641, 660, 681, 617, 639, 708, 611, 528, 624, 640, 579, 383, 555, 683, 613, 512, 529, 562, 462, 476, 594, 712, 653, 591, 666, 643, 488, 584, 675, 682, 601, 567, 627, 618, 547, 745, 821, 714, 605, 660, 611, 580, 588, 622, 782, 684, 584, 685, 697, 704, 573, 636, 731, 692, 624, 640, 646, 676, 586, 582, 718, 591, 494, 664, 721, 605, 512, 564, 726, 642, 569, 641, 655, 623, 485, 533, 563, 553, 597, 613, 560, 498, 468, 551, 574, 608, 555, 523, 538, 550, 617, 640, 546, 549, 581, 629, 563, 539, 647, 594, 569, 507, 644, 634, 558, 607, 605, 594, 661, 560, 533, 563, 588, 619, 550, 610, 610, 595, 561, 553, 522, 527, 545, 553, 602, 614, 542, 566, 508, 538, 571, 559, 546, 519, 574, 570, 599, 539, 541, 430, 424, 467, 562, 555, 530, 564, 503, 554, 490, 382, 413, 474, 526, 434, 446, 450, 419, 392, 433, 494, 489, 414, 418, 443, 487, 473, 470, 412, 432, 423, 391, 400, 439, 446, 392, 415, 482, 409, 406, 420, 338, 427, 424, 401, 449, 448, 495, 433, 388, 390, 455, 420, 449, 500, 458, 511, 469, 423, 442, 387, 395, 369, 438, 451, 427, 409, 368, 371, 376, 401, 458, 447, 365, 341, 384, 421, 347, 351, 412]"
0.16704069077968597,0.11198906600475311,0.34713658690452576,0.02817452698945999,0.3191280663013458,0.7695669531822205,-0.024958081543445587,-0.03480970859527588,0.3447532653808594,19.75,-0.011349320411682129,0.21829605102539062,18.75,-0.002766251564025879,0.13518333435058594,16.5,0.01912057399749756,0.1389026641845703,18.75,0.04472672939300537,0.0,15.5,"[461, 536, 606, 517, 452, 515, 607, 532, 553, 556, 600, 552, 574, 662, 632, 579, 616, 541, 572, 564, 592, 653, 530, 499, 532, 523, 572, 597, 506, 520, 486, 467, 469, 549, 631, 617, 536, 483, 519, 485, 482, 551, 542, 540, 502, 558, 546, 478, 514, 509, 459, 436, 518, 545, 505, 509, 545, 570, 552, 505, 552, 545, 600, 583, 609, 519, 469, 529, 574, 482, 477, 553, 515, 489, 521, 641, 560, 486, 518, 489, 564, 539, 526, 579, 581, 604, 613, 563, 564, 495, 519, 544, 535, 574, 602, 662, 550, 449, 456, 577, 603, 480, 456, 546, 539, 571, 522, 580, 608, 515, 565, 594, 553, 609, 570, 600, 523, 416, 550, 548, 559, 610, 616, 611, 563, 482, 609, 637, 448, 531, 602, 547, 488, 463, 490, 473, 528, 639, 657, 548, 512, 562, 513, 527, 620, 673, 577, 494, 538, 534, 584, 619, 608, 572, 566, 602, 463, 512, 663, 586, 460, 446, 534, 570, 388, 511, 667, 613, 540, 589, 548, 480, 522, 615, 651, 627, 562, 590, 539, 476, 567, 634, 543, 489, 569, 646, 670, 630, 537, 596, 613, 516, 557, 546, 532, 485, 503, 559, 567, 512, 557, 600, 547, 495, 581, 660, 547, 492, 604, 653, 579, 583, 571, 612, 620, 644, 556, 578, 598, 607, 491, 573, 638, 563, 521, 501, 448, 505, 462, 477, 456, 440, 565, 551, 560, 540, 580, 624, 545, 539, 481, 556, 481, 425, 557, 591, 552, 469, 549, 539, 528, 451, 471, 509, 546, 582, 463, 427, 505, 550, 553, 522, 548, 529, 529, 539, 521, 560, 616, 513, 463, 481, 639, 708, 595, 546, 569, 549, 535, 464, 622, 697, 651, 564, 574, 593, 593, 564, 908, 1584, 1282, 790, 875, 2125, 2529, 1498, 1142, 3162, 2617, 1330, 1073, 4054, 5369, 3262, 819, 2576, 2351, 1435, 879, 3256, 4726, 3240, 700, 1750, 2122, 2069, 944, 2022, 3624, 2887, 983, 1771, 2422, 2626, 1132, 2491, 4627, 3826, 1035, 1493, 1910, 1873, 888, 2238, 4022, 3371, 1115, 1040, 1824, 1669, 731, 1466, 2584, 2392, 1183, 1063, 1797, 1687, 846, 1285, 1924, 1875, 904, 1000, 1248, 1065, 744, 908, 1120, 1083, 586, 553, 612, 730, 704, 781, 938, 790, 528, 628, 702, 760, 721, 853, 1006, 806, 622, 595, 680, 633, 598, 678, 736, 685, 543, 635, 650, 595, 480, 590, 659, 593, 593, 606, 528, 508, 644, 679, 597, 563, 652, 624, 583, 575, 690, 656, 554, 603, 656, 538, 579, 575, 640, 586, 551, 679, 598, 543, 566, 620, 661, 667, 590, 558, 576, 721, 659, 563, 588, 765, 766, 541, 558, 710, 727, 607, 535, 502, 637, 585, 532, 615, 703, 602, 470, 519, 654, 646, 561, 611, 679, 546, 473, 539, 578, 621, 626, 709, 669, 630, 547, 639, 693, 562, 547, 513, 552, 600, 465, 507, 596, 560, 500, 562, 604, 559, 476, 566, 660, 577, 561, 639, 566, 591, 564, 523, 552, 502, 661, 740, 694, 600, 612, 641, 570, 587, 629, 670, 670, 576, 679, 682, 639, 588, 729, 766, 678, 655, 660, 664, 530, 585, 715, 735, 757, 725, 593, 572, 582, 589, 609, 596, 724, 682, 583, 715, 732, 641, 703, 699, 756, 705, 591, 832, 723, 637, 798, 843, 1141, 986, 669, 801, 826, 921, 871, 921, 1136, 934, 692, 837, 812, 991, 788, 762, 724, 557, 693, 729, 572, 696, 718, 607, 541, 578, 593, 567, 546, 635, 672, 609, 642, 621, 521, 606, 653, 637, 610, 580, 640, 620, 534, 547, 656, 633, 555, 742, 747, 656, 595, 743, 849, 690, 597, 724, 755, 617, 525, 683, 798, 716, 639, 586, 650, 653, 553, 539, 658, 685, 565, 541, 646, 667, 606, 520, 592, 670, 593, 621, 748, 791, 704, 648, 579, 627, 689, 628, 661, 639, 628, 630, 596, 665, 707, 600, 613, 638, 571, 561, 597, 664, 627, 634, 705, 668, 557, 569, 621, 654, 622, 702, 771, 723, 680, 628, 707, 672, 629, 767, 683, 683, 690, 639, 723, 607, 589, 638, 694, 736, 641, 655, 712, 626, 673, 682, 677, 765, 716, 606, 513, 635, 593, 601, 626, 608, 600, 639, 566, 653, 530, 577, 646, 583, 584, 669, 624, 647, 542, 555, 574, 650, 614, 608, 604, 549, 434, 584, 613, 583, 559, 537, 545, 488, 550, 735, 779, 675, 560, 647, 676, 662, 518, 624, 656, 619, 517, 591, 591, 505, 523, 613, 587, 621, 543, 525, 539, 440, 528, 597, 584, 553, 588, 547, 519, 492, 546, 571, 548, 573, 575, 637, 573, 595, 577, 638, 684, 637, 541, 652, 576, 530, 604, 713, 688, 545, 514, 664, 591, 511, 529, 643, 610, 505, 535, 606, 615, 498, 534, 577, 576, 614, 546, 493, 568, 593, 594, 650, 635, 581, 555, 518, 573, 553, 616, 624, 654, 673, 561, 571, 564, 561, 547, 647, 670, 674, 619, 576, 526, 519, 598, 591, 655, 701, 684, 608, 542, 608, 561, 574, 653, 634, 643, 644, 573, 645, 551, 569, 611, 597, 537, 623, 577, 625, 544, 593, 668, 564, 662, 641, 497, 583, 608, 579, 585, 571, 626, 632, 558, 604, 533, 608, 602, 576, 550, 604, 654, 612, 568, 525, 558, 590, 586, 591, 599, 635, 507, 526, 668, 671, 544, 606, 624, 609, 563, 624, 772, 660, 542, 680, 784, 691, 573, 644, 630, 560, 532, 606, 784, 709, 674, 605, 568, 615, 607, 692, 789, 746, 626, 573, 587, 592, 589, 579, 678, 709, 664, 643, 666, 621, 571, 482, 638, 710, 560, 561, 541, 514, 555, 450, 584, 639, 613, 603, 567, 557, 620, 592, 547, 604, 524, 548, 529, 577, 587, 488, 548, 546, 510, 513, 486, 560, 584, 469, 468, 547, 526, 493, 437, 525, 466, 449, 477, 542, 509, 557, 531, 472, 502, 501, 508, 484, 450, 453, 435, 380, 480, 546, 491, 453, 483, 483, 451, 444, 557, 564, 443, 447, 494, 501, 529, 517, 503, 544, 504, 482, 431, 466, 457, 436, 397, 444, 507, 469, 401, 416, 424, 423, 406, 374, 422, 446, 390, 402, 410, 472, 416, 408, 424, 429, 399, 397, 440, 449, 315, 364, 382, 382, 399, 370, 353, 333, 371, 414, 356, 350]"
0.11347411572933197,0.15859071910381317,0.41684839129447937,-0.11061882227659225,0.3306872844696045,0.74212247133255,-0.19660240411758423,-0.02149808406829834,0.04477500915527344,21.75,-0.018780112266540527,0.0,19.75,-0.012628912925720215,0.0,23.25,-0.007479071617126465,0.0,19.5,0.011975884437561035,0.0,17.25,"[551, 621, 614, 562, 654, 566, 618, 621, 460, 530, 596, 571, 623, 638, 578, 586, 406, 446, 542, 536, 554, 563, 510, 512, 490, 462, 523, 568, 576, 513, 448, 464, 517, 511, 472, 528, 515, 435, 431, 435, 529, 501, 480, 506, 473, 463, 526, 496, 425, 460, 496, 500, 420, 488, 564, 509, 543, 496, 501, 515, 514, 530, 582, 558, 585, 528, 451, 461, 494, 475, 452, 551, 582, 551, 524, 446, 465, 519, 580, 578, 578, 569, 552, 562, 525, 485, 565, 562, 589, 497, 424, 537, 493, 451, 428, 497, 530, 418, 441, 491, 418, 476, 478, 533, 612, 469, 461, 533, 498, 430, 463, 606, 498, 534, 583, 513, 523, 553, 589, 562, 480, 555, 671, 587, 571, 590, 598, 592, 504, 484, 510, 596, 611, 546, 479, 567, 548, 486, 584, 691, 667, 557, 546, 642, 554, 586, 537, 525, 562, 515, 410, 463, 524, 611, 467, 477, 598, 574, 525, 456, 499, 606, 546, 464, 526, 537, 512, 502, 625, 603, 554, 546, 677, 645, 590, 590, 593, 552, 499, 585, 605, 567, 585, 612, 511, 549, 624, 570, 595, 569, 576, 578, 429, 480, 496, 481, 542, 512, 524, 505, 504, 513, 536, 643, 645, 505, 530, 525, 574, 556, 485, 550, 592, 426, 447, 503, 632, 599, 452, 542, 601, 515, 539, 560, 578, 650, 595, 502, 494, 562, 613, 578, 544, 571, 539, 505, 494, 536, 556, 524, 531, 525, 599, 562, 559, 580, 504, 491, 537, 497, 616, 635, 561, 553, 551, 611, 548, 450, 508, 585, 576, 489, 491, 593, 546, 561, 500, 555, 590, 524, 456, 413, 559, 539, 569, 571, 597, 556, 540, 548, 624, 596, 610, 617, 612, 535, 586, 644, 784, 1001, 756, 651, 778, 1172, 1387, 912, 1016, 3174, 2669, 1275, 1039, 3746, 4950, 2953, 1145, 4793, 4719, 2377, 1126, 5240, 7446, 4913, 836, 3842, 4072, 2218, 714, 4077, 6576, 4908, 987, 2168, 2271, 2014, 1026, 2864, 5269, 4326, 1017, 1523, 1618, 2264, 1121, 2448, 4467, 3634, 839, 1228, 1646, 1699, 774, 1932, 3094, 2472, 946, 1628, 1698, 1094, 680, 1521, 2371, 1876, 978, 1700, 1606, 910, 725, 1686, 2228, 1520, 656, 868, 913, 734, 674, 1052, 1241, 885, 658, 602, 628, 710, 735, 731, 700, 691, 581, 645, 657, 565, 547, 578, 611, 593, 494, 545, 694, 694, 544, 578, 582, 553, 664, 576, 508, 595, 690, 602, 469, 570, 683, 573, 586, 636, 689, 610, 597, 694, 535, 612, 608, 513, 571, 569, 610, 512, 551, 662, 641, 593, 586, 664, 728, 544, 537, 537, 558, 584, 542, 625, 631, 516, 612, 628, 576, 634, 638, 711, 649, 481, 632, 563, 585, 694, 724, 644, 600, 576, 521, 529, 567, 626, 657, 665, 598, 582, 641, 604, 557, 545, 660, 748, 608, 634, 617, 626, 611, 597, 618, 578, 574, 618, 647, 668, 618, 623, 575, 521, 542, 540, 563, 645, 647, 596, 474, 460, 561, 506, 603, 787, 818, 639, 495, 551, 701, 599, 560, 893, 990, 689, 531, 680, 821, 659, 550, 914, 1059, 761, 533, 867, 849, 631, 574, 703, 720, 519, 534, 732, 700, 562, 565, 650, 578, 445, 594, 623, 619, 614, 638, 743, 579, 457, 570, 626, 543, 561, 648, 664, 677, 614, 522, 737, 675, 632, 592, 537, 658, 609, 496, 654, 734, 604, 620, 626, 605, 538, 553, 656, 633, 485, 470, 661, 657, 577, 564, 584, 594, 553, 441, 531, 550, 486, 480, 519, 536, 484, 554, 531, 462, 516, 520, 517, 529, 540, 703, 733, 624, 656, 633, 669, 596, 609, 658, 643, 706, 714, 687, 634, 651, 692, 568, 567, 603, 623, 702, 638, 659, 662, 540, 567, 611, 510, 538, 543, 626, 601, 600, 547, 566, 551, 585, 658, 669, 552, 525, 570, 574, 612, 581, 685, 696, 596, 661, 686, 640, 621, 659, 686, 685, 587, 751, 704, 611, 714, 688, 595, 672, 700, 749, 678, 556, 654, 628, 588, 680, 708, 639, 496, 583, 713, 574, 539, 719, 708, 656, 569, 688, 654, 558, 578, 660, 671, 528, 595, 632, 536, 556, 618, 521, 501, 676, 572, 560, 563, 544, 559, 537, 597, 719, 664, 500, 631, 669, 632, 617, 582, 598, 690, 615, 559, 508, 615, 590, 441, 558, 622, 635, 565, 502, 636, 602, 506, 669, 647, 595, 615, 635, 668, 686, 655, 677, 592, 490, 566, 586, 629, 633, 663, 580, 631, 573, 571, 566, 581, 540, 506, 559, 606, 560, 573, 590, 470, 458, 449, 567, 576, 567, 506, 559, 486, 493, 532, 543, 590, 603, 478, 537, 551, 543, 555, 555, 491, 624, 630, 582, 575, 593, 585, 638, 508, 594, 615, 584, 635, 628, 663, 626, 600, 592, 649, 656, 725, 687, 633, 618, 572, 526, 595, 619, 691, 552, 539, 496, 493, 552, 555, 589, 571, 518, 509, 549, 580, 571, 546, 600, 550, 565, 554, 636, 533, 515, 524, 535, 544, 560, 591, 630, 578, 581, 567, 570, 577, 564, 641, 515, 504, 520, 558, 598, 646, 659, 569, 536, 483, 489, 589, 586, 532, 504, 531, 563, 536, 552, 562, 621, 595, 520, 495, 599, 662, 624, 586, 538, 600, 656, 569, 574, 619, 709, 685, 602, 605, 676, 627, 614, 546, 539, 493, 561, 585, 524, 605, 765, 652, 603, 624, 612, 564, 565, 703, 715, 661, 639, 617, 607, 548, 552, 640, 644, 613, 676, 657, 558, 567, 677, 745, 582, 588, 617, 612, 569, 534, 603, 673, 584, 530, 597, 630, 591, 624, 746, 733, 470, 560, 626, 520, 476, 473, 598, 631, 542, 587, 633, 585, 555, 542, 528, 585, 552, 558, 574, 617, 579, 512, 480, 484, 499, 519, 622, 559, 436, 510, 555, 535, 527, 463, 507, 572, 493, 422, 491, 548, 546, 554, 493, 574, 523, 437, 532, 582, 460, 518, 445, 449, 546, 465, 433, 429, 455, 459, 390, 458, 514, 389, 478, 489, 437, 418, 468, 428, 416, 409, 417, 424, 424, 443, 477, 410, 372, 452, 456, 490, 418, 382, 337, 320, 396, 422, 344, 392, 384, 436, 476, 388, 346, 416, 376, 361, 344, 484, 483, 312, 348, 444, 454, 410, 377, 342, 358, 355, 405, 420, 396, 391]"
0.06771460175514221,0.22312477231025696,0.44466710090637207,-0.21703335642814636,0.35572004318237305,0.6335207223892212,-0.31118810176849365,-0.10652649402618408,0.22530555725097656,22.25,-0.10423767566680908,0.2669334411621094,20.0,-0.09279358386993408,0.1826763153076172,19.75,0.020789027214050293,-0.49767494201660156,16.0,0.10976684093475342,-0.2514839172363281,15.25,"[436, 542, 573, 554, 634, 554, 572, 541, 431, 508, 571, 588, 605, 606, 664, 572, 531, 544, 653, 669, 579, 589, 642, 620, 648, 534, 560, 597, 567, 585, 559, 611, 552, 518, 471, 557, 565, 560, 512, 493, 495, 532, 508, 512, 610, 585, 445, 443, 486, 548, 532, 473, 530, 547, 534, 490, 492, 523, 562, 536, 517, 569, 613, 551, 501, 507, 463, 482, 515, 572, 583, 548, 527, 545, 460, 456, 520, 492, 555, 531, 515, 575, 593, 606, 440, 471, 564, 541, 563, 538, 566, 534, 491, 566, 512, 567, 547, 555, 540, 506, 550, 544, 495, 542, 603, 576, 641, 549, 522, 564, 548, 605, 629, 600, 573, 572, 633, 585, 514, 598, 630, 578, 486, 503, 559, 581, 578, 611, 485, 462, 529, 507, 457, 464, 543, 546, 596, 588, 486, 524, 462, 481, 509, 540, 577, 558, 477, 562, 555, 475, 474, 531, 534, 521, 604, 590, 603, 572, 585, 623, 454, 487, 607, 446, 448, 595, 617, 575, 476, 512, 613, 583, 512, 564, 607, 558, 443, 596, 593, 551, 537, 565, 581, 523, 490, 602, 660, 617, 606, 643, 663, 623, 565, 570, 552, 506, 532, 564, 647, 673, 544, 492, 479, 520, 580, 584, 548, 608, 466, 567, 584, 516, 502, 552, 581, 485, 467, 582, 556, 502, 549, 549, 526, 470, 531, 585, 517, 440, 490, 517, 533, 472, 607, 625, 490, 544, 551, 531, 575, 545, 604, 571, 580, 601, 562, 576, 563, 602, 540, 563, 675, 634, 481, 460, 518, 508, 446, 537, 589, 510, 536, 534, 476, 419, 488, 616, 607, 480, 518, 542, 562, 565, 617, 620, 541, 490, 555, 578, 533, 640, 626, 573, 499, 494, 555, 500, 522, 642, 639, 673, 701, 670, 543, 736, 857, 759, 738, 1436, 1377, 1203, 594, 1793, 2625, 1831, 719, 2292, 2860, 2919, 920, 3113, 5341, 3986, 1565, 2226, 3823, 4568, 1929, 3603, 6954, 5722, 1454, 1547, 3013, 3650, 1741, 2648, 5248, 4478, 1194, 1103, 2021, 2249, 1343, 1355, 2919, 2790, 1126, 1347, 1541, 1735, 1361, 1667, 2823, 2459, 971, 2365, 1773, 1322, 1206, 2614, 3648, 2259, 959, 2565, 2136, 1090, 857, 2382, 3270, 1972, 784, 1277, 1193, 760, 586, 1114, 1393, 1018, 612, 572, 645, 630, 581, 801, 748, 615, 570, 543, 607, 611, 515, 622, 555, 521, 575, 726, 717, 601, 556, 546, 596, 542, 523, 674, 616, 517, 524, 605, 630, 513, 540, 467, 466, 566, 527, 472, 454, 558, 552, 541, 594, 601, 587, 490, 522, 592, 548, 554, 594, 551, 563, 540, 560, 606, 564, 621, 642, 547, 601, 670, 660, 629, 626, 653, 578, 529, 602, 673, 581, 565, 521, 572, 522, 562, 666, 698, 558, 465, 444, 531, 548, 541, 561, 618, 626, 518, 527, 490, 489, 542, 583, 581, 541, 536, 582, 538, 587, 590, 624, 562, 591, 615, 576, 610, 633, 616, 611, 640, 680, 637, 680, 717, 606, 710, 688, 574, 683, 666, 698, 757, 675, 596, 564, 507, 538, 553, 653, 808, 732, 557, 610, 649, 569, 533, 575, 742, 670, 498, 618, 662, 609, 530, 563, 612, 679, 550, 596, 658, 538, 544, 611, 523, 579, 560, 587, 668, 591, 622, 531, 564, 649, 609, 556, 594, 609, 597, 639, 665, 626, 525, 625, 662, 657, 618, 670, 570, 614, 670, 652, 596, 577, 650, 640, 549, 696, 737, 691, 586, 561, 676, 610, 554, 614, 667, 685, 627, 595, 639, 548, 640, 651, 558, 560, 555, 544, 514, 562, 637, 666, 571, 564, 640, 553, 514, 635, 620, 679, 647, 615, 677, 611, 611, 546, 605, 660, 660, 648, 720, 699, 597, 558, 582, 550, 605, 657, 623, 538, 516, 581, 532, 463, 632, 585, 524, 544, 509, 610, 563, 520, 555, 606, 618, 582, 662, 672, 742, 712, 625, 566, 628, 690, 641, 630, 750, 742, 722, 625, 654, 581, 573, 616, 625, 588, 619, 603, 632, 527, 542, 613, 646, 548, 595, 577, 567, 549, 519, 517, 536, 568, 650, 578, 537, 599, 554, 563, 554, 601, 567, 559, 621, 582, 612, 637, 623, 561, 514, 564, 668, 582, 537, 640, 627, 467, 489, 593, 575, 549, 448, 566, 652, 612, 559, 596, 575, 564, 549, 606, 723, 733, 627, 587, 613, 617, 558, 601, 642, 633, 556, 557, 639, 650, 576, 596, 549, 515, 581, 550, 590, 588, 562, 598, 552, 518, 515, 619, 642, 578, 555, 549, 585, 553, 480, 523, 511, 513, 498, 520, 589, 586, 568, 585, 592, 569, 568, 487, 574, 612, 511, 584, 589, 583, 591, 607, 610, 614, 565, 597, 588, 653, 642, 579, 543, 537, 543, 535, 582, 602, 583, 560, 489, 462, 559, 597, 568, 541, 547, 567, 475, 509, 588, 591, 548, 529, 580, 525, 461, 517, 548, 501, 546, 535, 495, 617, 519, 495, 550, 481, 528, 514, 524, 509, 541, 540, 457, 420, 480, 495, 456, 511, 592, 546, 492, 486, 562, 668, 581, 495, 492, 567, 565, 559, 591, 636, 581, 616, 630, 580, 553, 641, 639, 564, 616, 596, 657, 640, 573, 605, 589, 562, 581, 651, 670, 589, 554, 617, 559, 538, 573, 645, 577, 597, 624, 624, 515, 533, 668, 557, 517, 594, 643, 549, 510, 581, 631, 557, 517, 586, 637, 497, 472, 537, 557, 535, 544, 586, 612, 483, 477, 586, 601, 557, 538, 627, 580, 480, 450, 587, 675, 576, 526, 651, 647, 515, 514, 569, 616, 574, 529, 549, 619, 546, 476, 536, 552, 609, 558, 496, 590, 618, 469, 454, 558, 619, 605, 526, 578, 562, 501, 475, 560, 531, 584, 522, 534, 544, 545, 492, 420, 535, 512, 498, 537, 502, 526, 543, 536, 603, 505, 435, 513, 514, 490, 446, 501, 498, 544, 468, 453, 506, 496, 445, 459, 448, 511, 558, 583, 558, 553, 564, 495, 428, 454, 533, 519, 511, 498, 540, 500, 460, 467, 411, 382, 456, 476, 478, 480, 451, 468, 445, 374, 428, 444, 459, 497, 484, 447, 424, 413, 431, 467, 431, 439, 408, 349, 372, 391, 398, 397, 381, 404, 416, 358, 394, 425, 393, 332, 389, 389, 387, 349, 441, 453, 351, 368, 434, 478, 396, 383, 395, 421, 393, 377, 422, 383]"
0.1935625672340393,-0.11065283417701721,0.10677407681941986,0.0009002536535263062,0.23848071694374084,0.44178178906440735,0.021445631980895996,-0.1388951539993286,-0.6235599517822266,23.75,-0.13331615924835205,-0.050640106201171875,15.5,-0.0938340425491333,-0.05135536193847656,21.5,-0.05206310749053955,0.31142234802246094,24.0,0.004442095756530762,0.0,19.75,"[603, 592, 511, 529, 573, 532, 507, 596, 652, 650, 555, 506, 566, 661, 594, 607, 603, 650, 580, 520, 572, 683, 648, 563, 491, 511, 465, 452, 529, 543, 509, 456, 559, 545, 509, 500, 489, 464, 449, 456, 599, 540, 515, 573, 536, 428, 478, 555, 554, 549, 482, 551, 552, 517, 534, 604, 651, 569, 453, 529, 520, 503, 504, 574, 608, 554, 472, 414, 492, 501, 450, 504, 535, 543, 494, 520, 584, 555, 499, 521, 469, 543, 512, 515, 591, 571, 482, 495, 495, 550, 558, 532, 624, 614, 571, 532, 488, 539, 546, 558, 620, 565, 501, 538, 474, 555, 554, 567, 651, 569, 485, 454, 487, 516, 524, 595, 523, 491, 556, 515, 442, 545, 644, 587, 477, 569, 644, 554, 536, 597, 611, 556, 517, 584, 619, 508, 601, 537, 557, 519, 545, 636, 587, 588, 646, 564, 625, 657, 629, 606, 594, 642, 646, 548, 586, 648, 604, 559, 532, 542, 552, 495, 519, 529, 573, 537, 472, 553, 512, 585, 608, 615, 589, 610, 532, 526, 529, 557, 546, 610, 586, 571, 530, 519, 522, 518, 486, 547, 483, 457, 564, 536, 540, 486, 531, 572, 460, 431, 546, 593, 503, 478, 517, 513, 448, 460, 559, 574, 501, 555, 537, 576, 566, 536, 643, 585, 567, 561, 611, 563, 510, 515, 565, 594, 597, 585, 632, 562, 519, 499, 473, 573, 497, 532, 608, 579, 539, 559, 501, 483, 493, 529, 525, 552, 559, 590, 523, 502, 656, 545, 551, 629, 561, 577, 624, 629, 572, 501, 543, 573, 490, 565, 636, 586, 507, 481, 508, 495, 513, 529, 504, 532, 563, 489, 562, 559, 528, 558, 544, 611, 542, 470, 510, 553, 537, 606, 640, 547, 482, 467, 489, 520, 538, 575, 633, 593, 573, 550, 518, 551, 604, 570, 580, 590, 568, 645, 641, 613, 532, 561, 590, 548, 507, 578, 539, 525, 515, 531, 580, 553, 526, 632, 555, 536, 556, 558, 571, 479, 577, 668, 661, 582, 663, 684, 688, 636, 709, 891, 1003, 759, 613, 767, 1268, 1220, 1500, 1367, 2228, 1394, 738, 1388, 3325, 3493, 2288, 3984, 5653, 3366, 1095, 2819, 6745, 6796, 1929, 6868, 8338, 4516, 1250, 4541, 9226, 8130, 1553, 4885, 5444, 2847, 1140, 2874, 5782, 4903, 1136, 1761, 1680, 1031, 943, 915, 1384, 1405, 729, 1014, 1065, 763, 617, 970, 1183, 974, 594, 1172, 1190, 740, 574, 917, 1322, 1005, 666, 831, 756, 506, 546, 719, 1001, 929, 712, 755, 657, 508, 549, 661, 767, 643, 604, 681, 740, 626, 531, 657, 802, 744, 658, 607, 671, 574, 649, 634, 747, 787, 631, 618, 663, 699, 712, 622, 718, 810, 592, 563, 556, 649, 619, 602, 621, 626, 593, 598, 582, 543, 526, 559, 678, 621, 808, 1136, 942, 551, 620, 871, 1014, 709, 721, 1093, 937, 618, 629, 876, 953, 650, 587, 688, 623, 575, 620, 729, 754, 634, 567, 603, 561, 530, 534, 595, 669, 588, 611, 671, 590, 508, 591, 575, 661, 646, 599, 677, 640, 537, 576, 580, 622, 613, 589, 630, 595, 588, 490, 469, 616, 613, 624, 576, 481, 534, 526, 469, 551, 581, 570, 690, 556, 469, 598, 691, 718, 572, 625, 556, 524, 536, 541, 604, 742, 710, 787, 847, 694, 592, 575, 624, 689, 719, 964, 1186, 972, 542, 501, 695, 724, 670, 829, 851, 709, 529, 538, 582, 647, 653, 712, 673, 586, 577, 527, 627, 593, 615, 616, 623, 612, 474, 440, 594, 591, 576, 523, 632, 676, 552, 511, 577, 582, 587, 659, 673, 726, 667, 563, 611, 693, 734, 681, 667, 582, 539, 597, 644, 615, 611, 596, 621, 547, 580, 613, 575, 560, 504, 645, 630, 611, 652, 599, 589, 618, 605, 593, 583, 636, 701, 643, 606, 620, 612, 586, 563, 650, 708, 629, 662, 642, 614, 632, 602, 548, 606, 622, 597, 566, 636, 676, 509, 521, 603, 649, 575, 585, 710, 619, 586, 662, 690, 718, 540, 588, 727, 601, 583, 577, 604, 703, 627, 565, 676, 735, 650, 598, 665, 637, 604, 609, 643, 556, 612, 584, 610, 551, 615, 652, 591, 606, 568, 578, 640, 553, 532, 654, 674, 663, 555, 552, 619, 539, 548, 641, 657, 663, 533, 610, 673, 567, 548, 574, 643, 673, 563, 508, 531, 540, 612, 498, 496, 630, 525, 558, 614, 640, 686, 551, 545, 609, 538, 570, 637, 640, 642, 585, 601, 558, 582, 521, 483, 570, 602, 561, 472, 663, 590, 493, 510, 580, 563, 538, 589, 617, 582, 512, 542, 559, 541, 551, 606, 605, 601, 567, 533, 528, 539, 542, 601, 565, 541, 608, 558, 552, 543, 565, 623, 525, 483, 583, 562, 594, 578, 582, 601, 511, 540, 567, 542, 562, 632, 641, 622, 513, 592, 515, 484, 504, 557, 531, 441, 555, 563, 578, 640, 595, 506, 528, 485, 528, 583, 557, 475, 551, 573, 494, 464, 485, 571, 581, 585, 556, 560, 612, 537, 540, 542, 568, 491, 500, 532, 560, 536, 546, 602, 568, 443, 495, 575, 527, 470, 539, 588, 583, 534, 549, 535, 527, 468, 570, 619, 511, 526, 553, 534, 523, 451, 646, 635, 551, 563, 618, 599, 656, 621, 555, 612, 595, 574, 646, 569, 506, 506, 630, 596, 556, 569, 580, 573, 544, 530, 708, 688, 542, 607, 699, 685, 621, 656, 693, 678, 686, 658, 636, 678, 642, 621, 624, 686, 654, 594, 561, 630, 569, 517, 474, 506, 513, 588, 625, 654, 573, 484, 527, 601, 568, 629, 667, 603, 553, 510, 639, 629, 492, 566, 601, 571, 572, 487, 562, 489, 435, 484, 568, 470, 423, 510, 479, 457, 479, 488, 524, 530, 516, 538, 560, 535, 536, 516, 560, 554, 539, 591, 513, 523, 556, 428, 451, 509, 478, 484, 522, 541, 483, 511, 512, 554, 546, 455, 464, 455, 440, 444, 413, 445, 484, 476, 483, 446, 432, 499, 428, 447, 487, 489, 424, 414, 494, 527, 388, 423, 534, 493, 411, 501, 530, 441, 468, 463, 431, 373, 316, 406, 454, 355, 360, 388, 317, 329, 373, 391, 475, 449, 342, 383, 354, 376, 428, 366, 379, 390, 357, 382, 359, 417, 504, 478, 368, 403, 461, 445, 378, 479]"
0.16859769821166992,-0.00464378297328949,0.21529483795166016,-0.0575496107339859,0.40124502778053284,0.5979768633842468,-0.045556433498859406,-0.7102500200271606,-1.1640071868896484,23.5,-0.3878127336502075,-0.9409904479980469,24.0,-0.370646595954895,-0.8761882781982422,19.75,-0.1283179521560669,0.3024101257324219,17.75,0.016878962516784668,0.0,19.75,"[669, 650, 593, 595, 643, 595, 595, 652, 542, 601, 558, 574, 547, 590, 648, 539, 504, 608, 501, 482, 550, 662, 556, 431, 505, 452, 448, 523, 546, 503, 507, 516, 437, 392, 474, 515, 472, 411, 424, 459, 500, 526, 481, 518, 491, 513, 596, 525, 514, 537, 560, 575, 501, 564, 631, 600, 478, 503, 503, 524, 526, 473, 521, 538, 389, 501, 539, 554, 467, 392, 467, 449, 440, 540, 537, 557, 470, 465, 541, 432, 434, 487, 524, 505, 479, 502, 561, 522, 599, 516, 518, 532, 547, 559, 565, 622, 694, 621, 514, 503, 553, 584, 472, 531, 566, 518, 513, 585, 577, 624, 536, 559, 530, 476, 578, 540, 599, 572, 489, 579, 538, 520, 560, 558, 511, 577, 499, 533, 538, 544, 500, 486, 580, 550, 487, 475, 570, 529, 519, 541, 571, 580, 547, 504, 547, 536, 552, 574, 586, 600, 535, 531, 510, 613, 600, 574, 606, 621, 591, 529, 558, 547, 525, 527, 586, 587, 551, 544, 616, 588, 506, 539, 573, 628, 544, 567, 618, 563, 527, 612, 562, 481, 505, 510, 516, 574, 582, 502, 452, 557, 587, 554, 593, 554, 561, 626, 557, 499, 512, 617, 593, 509, 629, 646, 588, 532, 583, 625, 576, 587, 642, 595, 603, 646, 562, 523, 581, 554, 502, 562, 566, 523, 509, 546, 489, 447, 510, 517, 483, 515, 576, 592, 555, 553, 554, 542, 486, 556, 566, 519, 525, 507, 480, 528, 508, 456, 530, 504, 589, 595, 580, 603, 516, 511, 569, 558, 542, 586, 540, 546, 477, 472, 513, 470, 613, 612, 466, 504, 549, 599, 465, 436, 652, 625, 449, 436, 518, 506, 417, 516, 585, 598, 577, 542, 473, 495, 442, 521, 491, 593, 639, 509, 507, 489, 447, 486, 568, 530, 577, 612, 563, 552, 619, 608, 520, 514, 594, 580, 503, 545, 557, 524, 501, 515, 552, 536, 596, 601, 545, 521, 557, 525, 529, 584, 556, 562, 575, 555, 554, 595, 613, 601, 646, 596, 591, 560, 791, 874, 1013, 808, 730, 826, 1309, 1343, 1424, 2398, 2897, 1836, 1170, 1908, 3828, 3504, 1522, 4748, 5277, 3333, 1010, 3049, 4904, 3331, 1709, 7476, 8777, 4962, 1000, 4319, 7611, 6027, 1708, 7824, 8426, 4085, 1007, 4220, 7420, 5427, 2276, 6091, 6078, 2794, 1178, 3021, 4957, 3348, 1550, 2706, 2782, 1496, 761, 1873, 2780, 2276, 841, 1954, 2265, 1337, 638, 1708, 2754, 2277, 847, 1523, 1493, 905, 671, 1186, 1530, 1164, 759, 930, 802, 728, 751, 545, 678, 635, 573, 811, 738, 660, 569, 602, 760, 625, 473, 563, 580, 561, 522, 541, 561, 518, 593, 823, 923, 611, 537, 831, 1038, 926, 919, 1935, 2184, 1233, 725, 1587, 2531, 2146, 965, 2639, 2821, 1425, 683, 1836, 3144, 2531, 912, 1956, 2035, 1120, 732, 1343, 2264, 1817, 704, 1089, 1023, 647, 648, 876, 1128, 946, 610, 684, 659, 594, 748, 756, 688, 640, 665, 615, 534, 609, 689, 588, 554, 627, 607, 597, 558, 549, 656, 580, 557, 591, 623, 730, 731, 585, 624, 565, 535, 601, 773, 972, 927, 672, 592, 579, 530, 596, 748, 1017, 1009, 737, 619, 615, 594, 610, 662, 595, 649, 540, 535, 598, 669, 760, 654, 785, 708, 519, 512, 556, 581, 610, 790, 1350, 1293, 629, 675, 783, 722, 576, 872, 1352, 1302, 664, 627, 756, 833, 662, 728, 913, 738, 629, 703, 607, 617, 587, 645, 671, 673, 702, 676, 649, 519, 593, 597, 604, 626, 604, 622, 574, 592, 668, 517, 549, 541, 520, 543, 555, 534, 548, 550, 573, 574, 609, 557, 505, 481, 557, 572, 653, 739, 640, 527, 500, 552, 579, 665, 712, 635, 540, 528, 631, 678, 695, 576, 652, 659, 525, 552, 544, 647, 640, 517, 594, 696, 648, 540, 514, 636, 629, 592, 654, 620, 536, 573, 591, 645, 619, 634, 643, 632, 690, 658, 606, 584, 612, 637, 602, 549, 634, 651, 625, 633, 640, 588, 572, 549, 600, 625, 605, 500, 510, 519, 508, 582, 570, 517, 592, 538, 540, 556, 547, 658, 564, 523, 624, 581, 601, 540, 508, 605, 552, 575, 620, 474, 474, 650, 610, 641, 661, 588, 624, 602, 586, 717, 660, 650, 643, 601, 549, 490, 559, 656, 611, 643, 638, 573, 556, 605, 631, 719, 615, 601, 624, 569, 579, 563, 662, 646, 644, 634, 585, 564, 558, 495, 578, 567, 535, 603, 634, 531, 488, 501, 573, 642, 685, 695, 675, 557, 572, 653, 648, 630, 570, 613, 687, 458, 545, 627, 621, 584, 556, 563, 583, 469, 514, 597, 592, 569, 581, 623, 559, 502, 518, 651, 647, 594, 756, 698, 498, 533, 678, 712, 539, 628, 693, 589, 495, 582, 641, 645, 560, 679, 640, 498, 462, 621, 623, 543, 617, 645, 643, 568, 572, 634, 581, 561, 591, 528, 539, 478, 490, 506, 559, 580, 514, 541, 511, 520, 568, 573, 477, 561, 623, 583, 667, 695, 609, 577, 592, 647, 616, 605, 683, 663, 612, 590, 596, 610, 576, 621, 648, 606, 661, 705, 614, 533, 592, 563, 568, 678, 615, 570, 598, 540, 500, 545, 603, 659, 599, 565, 526, 580, 563, 490, 584, 689, 588, 547, 548, 665, 626, 554, 576, 666, 611, 620, 637, 639, 643, 558, 553, 677, 682, 644, 758, 698, 648, 692, 686, 630, 623, 605, 701, 650, 613, 565, 698, 683, 585, 535, 583, 610, 513, 674, 660, 631, 541, 500, 620, 626, 627, 667, 667, 606, 589, 550, 551, 578, 586, 609, 651, 622, 641, 525, 494, 618, 651, 617, 690, 642, 579, 572, 588, 633, 578, 616, 669, 648, 599, 555, 606, 496, 494, 447, 593, 565, 518, 550, 541, 477, 454, 502, 506, 560, 540, 566, 560, 529, 560, 545, 494, 473, 536, 548, 589, 554, 532, 526, 514, 495, 528, 480, 505, 526, 525, 440, 462, 482, 502, 477, 453, 470, 466, 491, 461, 473, 495, 444, 442, 488, 496, 455, 391, 414, 402, 441, 440, 388, 427, 390, 429, 474, 433, 408, 467, 444, 390, 391, 417, 500, 503, 437, 428, 345, 346, 464, 454, 428, 445, 439, 379, 349, 445, 345, 370, 387, 385, 444, 416, 429, 396, 426, 469, 432, 433, 356, 413, 428, 368]"
0.21919332444667816,0.10938212275505066,0.25236719846725464,0.08523793518543243,0.5444273352622986,0.6107641458511353,0.14890101552009583,-0.12195122241973877,0.3097057342529297,20.25,-0.061583638191223145,0.313568115234375,23.75,0.019526362419128418,0.10628700256347656,24.0,0.055146098136901855,0.10828971862792969,23.25,0.09162414073944092,0.0,19.25,"[507, 597, 631, 598, 667, 596, 630, 599, 556, 541, 518, 609, 619, 667, 656, 627, 501, 527, 551, 632, 576, 552, 568, 567, 428, 490, 473, 511, 473, 441, 531, 510, 422, 402, 416, 459, 431, 458, 539, 483, 513, 529, 564, 590, 530, 523, 539, 565, 448, 503, 559, 505, 480, 495, 442, 447, 538, 582, 537, 526, 467, 531, 558, 506, 475, 587, 607, 533, 543, 551, 467, 430, 561, 555, 538, 575, 607, 616, 511, 482, 575, 535, 490, 533, 500, 538, 545, 532, 584, 532, 571, 551, 474, 529, 556, 557, 573, 508, 539, 498, 528, 565, 508, 554, 578, 578, 596, 554, 554, 569, 503, 567, 456, 573, 566, 468, 522, 566, 533, 521, 466, 533, 539, 541, 537, 568, 560, 472, 510, 540, 519, 504, 512, 538, 510, 473, 519, 519, 586, 586, 531, 485, 539, 543, 588, 557, 553, 603, 566, 528, 533, 560, 654, 591, 548, 615, 637, 634, 558, 528, 517, 535, 523, 525, 558, 667, 627, 473, 561, 596, 508, 555, 672, 686, 622, 594, 537, 564, 564, 556, 629, 574, 500, 587, 561, 652, 681, 596, 647, 609, 583, 628, 626, 628, 573, 550, 593, 495, 478, 533, 608, 546, 538, 556, 553, 494, 507, 560, 566, 523, 545, 564, 605, 599, 583, 619, 574, 555, 612, 545, 555, 637, 583, 528, 503, 463, 591, 564, 462, 511, 486, 553, 493, 565, 624, 515, 448, 525, 570, 571, 547, 568, 634, 564, 467, 480, 556, 551, 522, 512, 547, 513, 470, 521, 512, 467, 535, 620, 657, 517, 447, 529, 512, 540, 538, 581, 614, 515, 502, 598, 525, 528, 536, 593, 489, 496, 535, 473, 499, 491, 548, 522, 533, 597, 552, 464, 597, 593, 599, 613, 553, 584, 557, 480, 577, 577, 597, 627, 454, 525, 669, 572, 543, 586, 672, 592, 473, 555, 699, 650, 506, 648, 525, 575, 615, 576, 573, 484, 586, 596, 489, 588, 582, 479, 477, 483, 557, 540, 524, 548, 574, 644, 645, 517, 540, 599, 700, 692, 637, 667, 703, 636, 765, 749, 1075, 1249, 1685, 1268, 835, 1105, 2203, 2238, 1309, 3434, 4748, 3000, 1118, 2489, 5557, 5230, 764, 6509, 8184, 4776, 962, 4339, 8513, 7210, 926, 7287, 8497, 4645, 811, 4892, 8741, 6856, 1610, 7310, 7755, 3726, 1245, 4733, 8370, 6341, 2296, 6912, 6732, 2874, 1575, 4147, 7155, 5191, 1792, 4165, 3797, 1630, 1117, 2353, 3954, 2819, 1006, 1679, 1384, 733, 678, 1033, 1570, 1189, 798, 971, 834, 602, 670, 837, 1000, 860, 717, 585, 657, 683, 604, 645, 784, 891, 808, 1383, 1583, 1073, 698, 1285, 2366, 2118, 1026, 2439, 2694, 1437, 696, 1992, 3536, 3020, 1166, 2123, 2412, 1635, 938, 1627, 2765, 2592, 1052, 1366, 1460, 1141, 786, 997, 1526, 1502, 992, 1169, 870, 653, 660, 984, 994, 764, 839, 990, 684, 567, 520, 765, 867, 644, 729, 749, 590, 599, 499, 553, 687, 616, 697, 580, 529, 545, 559, 589, 607, 624, 540, 521, 571, 560, 568, 585, 576, 555, 503, 506, 654, 603, 496, 521, 608, 654, 825, 949, 974, 699, 714, 653, 557, 732, 890, 1402, 1354, 800, 739, 699, 694, 674, 786, 1113, 1156, 831, 656, 733, 803, 646, 627, 664, 678, 641, 613, 644, 737, 615, 785, 888, 805, 608, 710, 656, 705, 642, 840, 999, 867, 735, 737, 637, 631, 622, 734, 787, 694, 704, 637, 648, 721, 599, 658, 632, 681, 644, 608, 632, 624, 635, 669, 579, 588, 615, 534, 571, 564, 626, 645, 574, 618, 624, 615, 662, 638, 664, 657, 539, 627, 702, 640, 566, 558, 643, 611, 644, 716, 665, 511, 538, 574, 534, 608, 637, 623, 546, 520, 535, 545, 497, 614, 655, 727, 669, 662, 595, 574, 625, 644, 688, 689, 727, 769, 609, 641, 695, 667, 587, 608, 739, 793, 630, 629, 680, 554, 537, 551, 521, 618, 627, 545, 554, 500, 542, 560, 474, 506, 540, 519, 552, 567, 605, 598, 505, 605, 607, 585, 596, 566, 577, 612, 574, 561, 519, 652, 652, 543, 601, 656, 569, 475, 579, 707, 619, 564, 552, 606, 570, 546, 588, 638, 588, 614, 578, 544, 544, 633, 656, 588, 584, 506, 501, 568, 660, 677, 656, 732, 671, 519, 534, 538, 573, 596, 658, 746, 642, 566, 548, 536, 589, 616, 601, 633, 661, 524, 540, 634, 570, 577, 535, 638, 658, 561, 632, 579, 494, 569, 593, 588, 521, 556, 557, 591, 560, 556, 604, 594, 508, 534, 591, 560, 587, 514, 624, 656, 533, 686, 718, 717, 714, 616, 702, 680, 589, 549, 655, 696, 657, 519, 569, 669, 591, 512, 539, 593, 573, 479, 528, 623, 602, 585, 560, 495, 589, 626, 570, 497, 474, 505, 541, 602, 632, 624, 593, 544, 497, 553, 553, 601, 561, 553, 579, 491, 484, 580, 590, 592, 573, 569, 573, 523, 534, 521, 612, 644, 612, 608, 619, 587, 577, 583, 633, 666, 636, 638, 706, 660, 590, 552, 562, 597, 535, 599, 672, 618, 521, 528, 583, 592, 540, 620, 661, 640, 641, 468, 643, 682, 571, 630, 619, 641, 636, 574, 573, 568, 529, 607, 580, 553, 571, 631, 564, 511, 574, 620, 575, 499, 559, 521, 548, 569, 617, 701, 558, 513, 576, 548, 490, 486, 588, 618, 464, 495, 568, 622, 582, 609, 579, 617, 582, 544, 621, 606, 544, 604, 617, 612, 633, 621, 577, 482, 522, 576, 577, 543, 629, 703, 644, 554, 432, 611, 656, 546, 602, 612, 627, 611, 537, 583, 622, 553, 553, 540, 562, 610, 486, 526, 490, 519, 554, 527, 588, 433, 509, 561, 505, 569, 594, 569, 522, 433, 420, 562, 594, 547, 520, 508, 506, 534, 519, 571, 616, 626, 547, 506, 524, 527, 530, 559, 539, 550, 528, 494, 471, 469, 570, 543, 431, 434, 549, 535, 434, 509, 514, 503, 462, 454, 539, 495, 452, 531, 505, 501, 559, 557, 517, 479, 506, 526, 460, 438, 456, 482, 557, 467, 480, 469, 460, 538, 493, 441, 524, 540, 520, 421, 415, 526, 478, 446, 475, 506, 552, 491, 397, 401, 414, 489, 455, 386, 470, 455, 406, 433, 414, 419, 433, 406, 430, 372, 413, 458, 409, 400, 436, 478, 418]"
0.26743459701538086,0.22633862495422363,0.18689146637916565,0.19552290439605713,0.6038944721221924,0.3640730679035187,0.26018303632736206,-0.07449579238891602,0.36792755126953125,22.75,-0.0740666389465332,0.2071380615234375,19.5,-0.0660557746887207,0.20885467529296875,24.0,0.14351415634155273,0.2444744110107422,18.5,0.1719813346862793,0.43087005615234375,20.5,"[637, 628, 578, 594, 708, 589, 573, 627, 609, 646, 619, 560, 646, 603, 574, 590, 531, 541, 569, 541, 543, 637, 600, 487, 505, 539, 517, 565, 590, 580, 564, 514, 585, 592, 516, 562, 549, 558, 528, 527, 613, 590, 466, 520, 539, 477, 442, 482, 449, 459, 531, 574, 557, 506, 456, 421, 568, 530, 531, 629, 632, 540, 425, 492, 498, 509, 504, 542, 462, 437, 490, 430, 430, 490, 575, 565, 474, 478, 548, 481, 487, 419, 460, 511, 538, 519, 447, 491, 521, 523, 524, 583, 569, 568, 581, 523, 483, 526, 596, 620, 477, 508, 601, 528, 569, 603, 624, 625, 544, 609, 638, 602, 609, 611, 589, 609, 537, 596, 618, 612, 550, 575, 625, 628, 524, 534, 567, 557, 564, 518, 545, 578, 523, 531, 529, 544, 586, 481, 486, 550, 584, 616, 544, 586, 541, 461, 510, 570, 578, 594, 580, 620, 541, 518, 523, 633, 568, 586, 596, 554, 516, 499, 487, 516, 516, 507, 538, 483, 520, 522, 463, 489, 589, 583, 574, 585, 547, 603, 556, 572, 650, 611, 631, 616, 548, 625, 576, 527, 588, 567, 565, 559, 575, 501, 464, 526, 516, 512, 515, 549, 609, 570, 507, 512, 609, 552, 479, 533, 474, 535, 490, 526, 594, 513, 455, 512, 548, 574, 486, 562, 556, 504, 503, 507, 581, 572, 515, 530, 611, 567, 534, 505, 510, 539, 494, 491, 579, 548, 548, 535, 579, 560, 624, 598, 546, 525, 588, 564, 534, 501, 497, 522, 460, 483, 524, 558, 594, 604, 525, 449, 489, 549, 516, 564, 514, 525, 522, 506, 518, 527, 493, 484, 507, 503, 521, 575, 562, 557, 559, 517, 486, 488, 546, 597, 485, 519, 540, 493, 599, 606, 584, 578, 535, 472, 602, 640, 542, 612, 580, 535, 505, 488, 518, 523, 626, 601, 594, 527, 433, 551, 573, 617, 570, 532, 580, 555, 513, 602, 595, 601, 481, 520, 553, 567, 579, 530, 522, 529, 494, 483, 568, 578, 482, 496, 517, 552, 611, 522, 592, 571, 566, 561, 568, 599, 759, 1078, 1106, 832, 751, 943, 1487, 1322, 1499, 3159, 3945, 2329, 1228, 2565, 5186, 4698, 1564, 5645, 7343, 4189, 1460, 4063, 8688, 7884, 935, 5266, 6462, 3387, 968, 3690, 7523, 6537, 791, 2316, 2158, 986, 850, 1927, 3028, 2185, 1256, 2225, 2237, 1276, 814, 924, 1355, 1140, 991, 1781, 1726, 957, 622, 953, 1422, 1174, 858, 1387, 1225, 769, 688, 903, 999, 729, 947, 1014, 1162, 818, 729, 771, 1293, 1439, 1903, 2918, 3507, 1840, 1244, 2672, 5293, 4973, 2519, 5544, 6099, 2837, 1446, 5009, 9409, 8132, 1599, 4071, 4331, 1795, 840, 3648, 6624, 5531, 828, 1745, 1570, 711, 739, 1267, 1937, 1495, 714, 814, 654, 583, 593, 662, 692, 640, 581, 646, 572, 590, 617, 643, 698, 613, 583, 500, 601, 625, 500, 604, 646, 625, 613, 621, 656, 637, 533, 622, 691, 583, 663, 656, 626, 604, 520, 646, 578, 553, 620, 510, 528, 618, 581, 528, 605, 683, 574, 556, 631, 677, 606, 524, 575, 631, 565, 678, 754, 657, 601, 539, 608, 631, 648, 800, 838, 595, 537, 603, 618, 670, 683, 688, 723, 632, 644, 643, 641, 696, 651, 616, 681, 652, 615, 612, 633, 635, 579, 750, 771, 627, 721, 712, 636, 629, 560, 709, 684, 534, 589, 595, 604, 601, 567, 598, 560, 511, 504, 541, 548, 569, 588, 629, 609, 550, 525, 466, 536, 542, 579, 652, 618, 526, 544, 650, 655, 525, 512, 543, 493, 466, 534, 599, 549, 460, 589, 543, 555, 578, 516, 550, 566, 537, 670, 700, 584, 573, 593, 657, 639, 536, 612, 695, 638, 537, 514, 573, 625, 551, 606, 590, 625, 606, 529, 516, 579, 658, 634, 588, 605, 566, 547, 604, 644, 671, 556, 566, 642, 645, 571, 590, 764, 734, 610, 495, 632, 733, 698, 617, 707, 709, 636, 585, 662, 674, 675, 611, 732, 747, 614, 647, 625, 655, 641, 655, 653, 679, 582, 564, 462, 554, 628, 605, 582, 569, 583, 579, 611, 635, 628, 655, 612, 619, 600, 582, 562, 611, 693, 702, 640, 620, 581, 565, 575, 590, 735, 740, 578, 603, 685, 649, 536, 521, 673, 689, 538, 592, 589, 529, 576, 533, 542, 540, 564, 639, 507, 477, 515, 492, 520, 556, 550, 599, 601, 628, 595, 624, 694, 624, 574, 571, 611, 617, 642, 636, 651, 578, 568, 552, 563, 645, 607, 571, 638, 609, 629, 599, 572, 529, 542, 603, 614, 540, 634, 647, 542, 478, 423, 451, 521, 531, 586, 616, 530, 523, 522, 523, 538, 515, 485, 499, 424, 462, 468, 501, 557, 519, 461, 440, 488, 453, 512, 525, 558, 585, 569, 566, 554, 558, 520, 498, 558, 727, 688, 552, 587, 597, 510, 488, 535, 633, 573, 481, 575, 523, 610, 618, 525, 645, 654, 633, 605, 470, 560, 632, 573, 563, 598, 548, 588, 535, 535, 652, 615, 497, 514, 569, 656, 493, 499, 602, 657, 519, 489, 636, 622, 508, 515, 597, 602, 567, 548, 675, 602, 553, 537, 573, 609, 631, 584, 610, 686, 627, 707, 718, 663, 717, 721, 659, 538, 505, 678, 724, 636, 644, 684, 632, 550, 486, 556, 530, 483, 472, 628, 717, 556, 556, 556, 556, 554, 510, 597, 663, 708, 563, 564, 650, 612, 540, 576, 672, 676, 653, 657, 613, 612, 683, 593, 591, 621, 534, 631, 597, 549, 658, 584, 611, 531, 601, 582, 490, 584, 574, 527, 511, 497, 588, 633, 597, 592, 574, 566, 555, 444, 529, 471, 454, 496, 484, 542, 521, 560, 541, 580, 584, 539, 539, 583, 583, 469, 465, 558, 570, 562, 574, 575, 543, 590, 578, 603, 661, 621, 605, 499, 511, 517, 538, 647, 652, 546, 505, 563, 576, 501, 508, 512, 501, 477, 484, 524, 487, 507, 442, 453, 485, 504, 530, 496, 503, 549, 491, 430, 443, 479, 528, 514, 537, 451, 444, 434, 461, 462, 464, 477, 468, 477, 478, 474, 446, 545, 524, 440, 495, 364, 371, 391, 389, 411, 364, 439, 460, 405, 378, 374, 420, 408, 371, 450, 486, 461, 418, 382, 482, 441, 416, 468, 480, 414, 356, 376, 429, 370, 282, 346, 396]"
0.30008116364479065,0.2771119475364685,-0.055805373936891556,0.14755870401859283,0.16420617699623108,-0.3130902051925659,0.08248338103294373,-0.04486668109893799,0.8703231811523438,17.5,-0.009533047676086426,0.37293434143066406,15.5,0.0954664945602417,0.3062725067138672,24.5,0.1408137083053589,0.36864280700683594,30.25,0.14825236797332764,0.4311561584472656,27.75,"[720, 629, 589, 578, 547, 579, 590, 626, 621, 665, 639, 613, 573, 642, 649, 620, 437, 551, 600, 536, 466, 538, 549, 464, 499, 547, 590, 478, 466, 505, 512, 518, 480, 514, 519, 450, 481, 497, 549, 549, 521, 499, 456, 414, 481, 494, 475, 495, 629, 534, 528, 559, 529, 555, 480, 528, 590, 570, 482, 569, 548, 564, 508, 439, 546, 502, 465, 495, 503, 529, 482, 503, 490, 467, 477, 521, 540, 575, 517, 418, 567, 526, 470, 552, 515, 534, 527, 481, 599, 597, 587, 612, 530, 550, 641, 559, 567, 632, 601, 528, 559, 552, 526, 515, 543, 574, 567, 498, 550, 578, 558, 532, 511, 594, 582, 623, 610, 591, 651, 593, 524, 551, 525, 636, 574, 574, 622, 559, 464, 525, 579, 515, 486, 516, 539, 521, 505, 533, 524, 439, 545, 505, 542, 608, 476, 554, 598, 496, 534, 574, 603, 568, 562, 650, 652, 602, 613, 632, 594, 582, 614, 561, 481, 612, 639, 653, 588, 620, 665, 526, 566, 633, 623, 546, 616, 687, 485, 508, 560, 556, 582, 577, 533, 477, 599, 581, 467, 463, 669, 672, 611, 561, 542, 608, 564, 552, 615, 639, 708, 629, 550, 525, 589, 611, 528, 566, 700, 670, 549, 474, 502, 607, 570, 504, 593, 621, 544, 551, 572, 563, 538, 558, 619, 637, 420, 518, 529, 433, 465, 524, 560, 492, 468, 510, 536, 507, 482, 488, 501, 519, 594, 516, 547, 635, 656, 549, 504, 608, 572, 549, 545, 575, 618, 529, 503, 590, 475, 526, 613, 561, 530, 503, 537, 593, 525, 514, 598, 639, 565, 538, 515, 562, 535, 505, 483, 573, 575, 502, 557, 582, 572, 585, 585, 638, 692, 591, 564, 659, 604, 587, 494, 555, 620, 601, 561, 649, 627, 614, 594, 512, 648, 688, 612, 680, 527, 601, 630, 531, 614, 641, 542, 560, 524, 548, 548, 467, 549, 578, 547, 488, 531, 619, 654, 570, 549, 616, 623, 543, 569, 595, 699, 688, 515, 573, 666, 620, 712, 660, 605, 635, 589, 556, 691, 714, 1144, 1368, 1527, 1061, 682, 1185, 2147, 2068, 2248, 3902, 4823, 2679, 1310, 3307, 6608, 6109, 1907, 6393, 7966, 4457, 1393, 4867, 9719, 8508, 779, 6068, 7134, 3852, 883, 4137, 7803, 6360, 837, 3043, 3291, 1681, 659, 2061, 3535, 2726, 749, 1150, 1282, 882, 619, 959, 1349, 1248, 669, 1134, 1237, 784, 524, 703, 1204, 1155, 521, 711, 706, 566, 556, 581, 744, 756, 1437, 899, 1136, 806, 978, 979, 1578, 2012, 4527, 4973, 6357, 3200, 2356, 4828, 10767, 10766, 5867, 10223, 12231, 5590, 2731, 9992, 20770, 19017, 3281, 8088, 9394, 3959, 1358, 7726, 15422, 13591, 1120, 2794, 3287, 1519, 661, 2431, 4842, 4354, 821, 992, 974, 792, 600, 720, 938, 888, 747, 805, 766, 615, 628, 634, 681, 661, 656, 703, 732, 646, 621, 693, 699, 647, 520, 588, 613, 494, 514, 622, 711, 636, 438, 525, 582, 533, 544, 603, 633, 583, 543, 569, 563, 565, 587, 577, 559, 477, 558, 575, 583, 642, 556, 562, 634, 539, 661, 704, 579, 502, 487, 453, 562, 627, 667, 777, 650, 509, 548, 635, 623, 564, 528, 619, 667, 593, 637, 772, 700, 538, 612, 797, 706, 513, 582, 677, 686, 561, 890, 1396, 1265, 729, 694, 708, 799, 759, 1070, 1580, 1402, 769, 763, 816, 779, 711, 878, 870, 682, 617, 728, 605, 529, 704, 655, 702, 610, 649, 720, 615, 566, 593, 577, 602, 615, 626, 677, 584, 635, 637, 501, 419, 509, 574, 600, 535, 553, 536, 616, 582, 580, 601, 628, 587, 568, 641, 579, 651, 639, 604, 619, 583, 612, 598, 622, 713, 657, 529, 555, 614, 566, 579, 647, 703, 624, 556, 566, 640, 607, 573, 554, 665, 685, 647, 519, 561, 659, 527, 586, 617, 601, 648, 502, 530, 591, 534, 524, 492, 578, 645, 544, 571, 663, 601, 568, 523, 566, 649, 595, 582, 660, 607, 636, 606, 658, 687, 604, 621, 667, 647, 503, 588, 644, 516, 517, 636, 591, 497, 593, 621, 603, 560, 647, 634, 560, 552, 561, 521, 545, 519, 522, 580, 584, 542, 523, 526, 525, 523, 577, 582, 587, 545, 634, 621, 580, 592, 621, 564, 602, 603, 734, 749, 581, 526, 580, 600, 663, 622, 635, 630, 599, 528, 563, 602, 633, 579, 585, 604, 617, 627, 614, 668, 663, 674, 678, 703, 660, 613, 537, 648, 688, 670, 552, 619, 655, 667, 545, 606, 620, 602, 568, 577, 733, 698, 647, 715, 682, 594, 605, 558, 637, 602, 559, 611, 633, 609, 613, 635, 542, 519, 558, 675, 663, 569, 609, 659, 598, 586, 544, 647, 650, 564, 548, 563, 630, 568, 531, 600, 629, 570, 545, 604, 574, 545, 571, 556, 572, 589, 595, 527, 523, 569, 586, 561, 586, 618, 650, 594, 480, 602, 611, 602, 576, 604, 670, 634, 522, 575, 613, 622, 549, 550, 617, 554, 548, 598, 652, 625, 591, 642, 528, 515, 642, 650, 515, 502, 531, 559, 558, 584, 568, 585, 559, 527, 535, 551, 578, 533, 586, 617, 510, 539, 608, 568, 585, 528, 625, 591, 534, 632, 557, 533, 602, 628, 704, 624, 505, 667, 627, 517, 693, 589, 587, 638, 639, 636, 592, 601, 623, 552, 598, 617, 519, 543, 615, 652, 649, 595, 522, 594, 583, 596, 589, 650, 561, 559, 522, 503, 533, 602, 585, 561, 611, 570, 530, 591, 615, 533, 538, 595, 578, 626, 570, 556, 544, 558, 621, 604, 654, 614, 533, 570, 581, 544, 514, 596, 628, 638, 578, 551, 522, 554, 505, 574, 598, 519, 539, 518, 466, 493, 553, 576, 626, 567, 493, 494, 535, 554, 509, 526, 569, 514, 533, 555, 588, 579, 546, 632, 518, 542, 530, 566, 597, 549, 569, 638, 576, 589, 606, 514, 529, 529, 579, 583, 523, 524, 533, 454, 474, 495, 521, 518, 508, 551, 574, 492, 463, 492, 524, 531, 452, 525, 520, 484, 492, 451, 399, 433, 426, 459, 481, 486, 409, 476, 543, 456, 457, 368, 387, 433, 427, 420, 444, 455, 475, 471, 474, 486, 476, 467, 427, 499, 531, 447, 370, 402, 451, 387, 349, 435, 467, 462, 461, 429, 419, 395, 446, 434]"
0.29748040437698364,0.09211203455924988,-0.11640029400587082,0.09491471946239471,-0.2113957405090332,-0.43415749073028564,-0.025445982813835144,-0.17432725429534912,0.4071235656738281,16.25,-0.12483155727386475,0.4108428955078125,23.75,-0.050015807151794434,0.3105640411376953,24.25,0.011925339698791504,0.21028518676757812,20.5,0.015072464942932129,0.16150474548339844,16.25,"[588, 649, 681, 599, 554, 602, 679, 645, 574, 579, 712, 741, 675, 649, 602, 626, 557, 592, 549, 562, 565, 595, 533, 514, 541, 569, 556, 494, 454, 563, 592, 492, 434, 566, 532, 410, 398, 516, 548, 446, 526, 617, 541, 374, 414, 571, 589, 526, 557, 528, 464, 460, 522, 545, 489, 502, 497, 517, 465, 424, 448, 522, 528, 531, 487, 445, 449, 459, 451, 523, 530, 466, 560, 480, 518, 554, 543, 516, 502, 543, 537, 528, 574, 538, 518, 562, 516, 496, 437, 503, 519, 525, 566, 529, 454, 502, 450, 538, 499, 440, 544, 524, 467, 475, 535, 592, 558, 496, 536, 635, 572, 516, 537, 524, 591, 588, 486, 546, 563, 522, 610, 538, 541, 554, 519, 555, 568, 554, 602, 601, 613, 542, 489, 605, 643, 572, 515, 606, 601, 595, 524, 604, 661, 513, 533, 595, 611, 559, 488, 533, 570, 542, 575, 568, 613, 563, 584, 551, 492, 602, 530, 488, 540, 565, 549, 557, 493, 582, 594, 503, 531, 644, 625, 592, 524, 533, 487, 504, 557, 620, 630, 592, 619, 571, 575, 551, 562, 632, 665, 623, 570, 545, 600, 548, 517, 504, 504, 506, 515, 548, 614, 567, 538, 552, 566, 590, 597, 590, 589, 510, 488, 563, 538, 553, 563, 601, 536, 446, 446, 561, 550, 525, 519, 541, 469, 442, 519, 573, 549, 487, 596, 582, 583, 554, 578, 637, 566, 574, 657, 634, 592, 549, 622, 635, 563, 530, 566, 584, 500, 457, 537, 548, 515, 578, 594, 551, 411, 534, 540, 405, 441, 533, 579, 504, 570, 641, 605, 519, 510, 485, 548, 580, 622, 635, 605, 546, 506, 468, 518, 632, 572, 618, 649, 559, 555, 524, 570, 640, 583, 529, 604, 601, 606, 562, 558, 603, 606, 607, 589, 643, 619, 573, 576, 623, 534, 552, 624, 655, 567, 543, 553, 587, 590, 585, 522, 459, 530, 535, 591, 594, 548, 474, 476, 446, 446, 481, 543, 567, 449, 510, 557, 492, 450, 532, 559, 506, 636, 675, 696, 536, 503, 631, 750, 726, 1617, 1943, 2569, 1602, 924, 1799, 3698, 3627, 2381, 4949, 6264, 3491, 1431, 4156, 8546, 7753, 1408, 6406, 7598, 4299, 1199, 4839, 9166, 7565, 780, 4957, 5662, 3104, 703, 3340, 5939, 4582, 951, 3108, 3629, 1958, 842, 1941, 3862, 3331, 931, 2485, 2879, 1454, 869, 1344, 3027, 2874, 743, 1487, 1812, 968, 645, 855, 1726, 1736, 774, 584, 724, 637, 528, 576, 685, 881, 680, 871, 789, 698, 627, 638, 790, 712, 652, 788, 707, 639, 601, 633, 735, 635, 750, 688, 816, 682, 542, 734, 1076, 1112, 799, 939, 1147, 854, 592, 909, 1600, 1585, 874, 871, 1081, 903, 663, 917, 1463, 1474, 750, 979, 1043, 783, 597, 865, 1302, 1191, 662, 960, 934, 738, 539, 775, 1205, 953, 661, 786, 722, 664, 521, 704, 941, 717, 564, 586, 628, 558, 520, 617, 697, 623, 485, 521, 566, 598, 586, 540, 572, 543, 742, 741, 691, 676, 625, 638, 786, 827, 812, 949, 812, 717, 713, 795, 874, 766, 710, 690, 638, 558, 548, 681, 741, 745, 587, 615, 538, 463, 548, 545, 677, 693, 489, 655, 599, 550, 600, 576, 607, 540, 540, 687, 683, 610, 658, 669, 547, 565, 684, 1080, 1194, 818, 676, 630, 740, 790, 823, 1256, 1310, 877, 704, 752, 810, 795, 864, 1007, 944, 763, 763, 679, 711, 685, 704, 627, 500, 622, 663, 533, 584, 643, 695, 600, 519, 594, 653, 542, 566, 660, 660, 716, 639, 539, 569, 553, 515, 577, 586, 732, 671, 519, 473, 679, 636, 533, 603, 626, 618, 582, 616, 697, 584, 577, 610, 507, 558, 647, 706, 640, 525, 574, 585, 487, 638, 687, 661, 508, 519, 650, 630, 567, 636, 673, 685, 545, 504, 626, 666, 579, 595, 662, 684, 532, 563, 671, 678, 690, 616, 574, 655, 577, 607, 626, 535, 604, 527, 510, 597, 596, 624, 502, 564, 624, 547, 590, 580, 574, 705, 643, 599, 649, 617, 634, 654, 585, 701, 683, 630, 648, 702, 651, 675, 629, 720, 740, 569, 559, 585, 554, 696, 737, 623, 654, 631, 677, 669, 478, 707, 824, 661, 595, 761, 728, 616, 652, 738, 674, 674, 706, 604, 587, 617, 568, 514, 569, 665, 619, 613, 561, 670, 673, 597, 550, 656, 725, 693, 583, 566, 641, 654, 634, 551, 587, 674, 592, 546, 684, 741, 614, 525, 596, 745, 745, 678, 700, 747, 651, 598, 631, 522, 630, 651, 619, 566, 589, 659, 550, 548, 666, 636, 599, 579, 596, 634, 563, 533, 552, 613, 515, 517, 631, 558, 534, 630, 607, 600, 556, 572, 594, 562, 656, 613, 504, 504, 528, 579, 603, 537, 538, 551, 566, 554, 579, 547, 552, 572, 538, 444, 539, 578, 521, 539, 502, 539, 525, 520, 470, 516, 557, 527, 487, 551, 587, 636, 524, 580, 618, 553, 521, 546, 655, 580, 572, 615, 675, 646, 667, 628, 639, 499, 481, 498, 509, 547, 613, 648, 615, 577, 596, 655, 548, 462, 638, 682, 551, 520, 609, 618, 513, 509, 574, 576, 524, 650, 732, 620, 499, 578, 632, 596, 628, 599, 785, 765, 574, 579, 639, 716, 630, 549, 717, 749, 562, 510, 613, 622, 550, 547, 600, 611, 568, 487, 614, 619, 522, 499, 603, 666, 596, 539, 670, 686, 589, 450, 558, 636, 618, 557, 676, 687, 549, 590, 585, 567, 547, 551, 616, 675, 601, 578, 644, 587, 542, 579, 603, 586, 548, 651, 712, 634, 524, 680, 636, 588, 622, 673, 652, 631, 683, 733, 622, 518, 636, 590, 565, 637, 671, 560, 591, 518, 527, 482, 575, 602, 605, 534, 551, 536, 501, 603, 613, 550, 572, 572, 509, 514, 510, 467, 468, 556, 525, 443, 445, 431, 453, 527, 521, 536, 579, 523, 506, 480, 414, 453, 493, 534, 498, 476, 448, 401, 402, 484, 490, 425, 445, 491, 533, 488, 428, 493, 422, 438, 465, 520, 469, 440, 532, 430, 445, 458, 442, 463, 492, 443, 442, 404, 358, 431, 401, 415, 415, 367, 407, 458, 400, 410, 417, 414, 457, 354, 359, 363, 414, 442, 414, 395, 452, 423, 361, 320, 424, 429, 378, 350, 450, 444, 315]"
0.24377068877220154,-0.09017215669155121,-0.14699774980545044,-0.08316537737846375,-0.5115461349487305,-0.4718749523162842,-0.27539438009262085,-0.1566777229309082,-0.6759166717529297,24.0,-0.1303563117980957,-0.6199836730957031,20.75,-0.05625581741333008,0.25992393493652344,24.75,-0.05081987380981445,0.20627975463867188,21.75,-0.03565645217895508,-0.052356719970703125,21.25,"[517, 582, 570, 550, 558, 548, 571, 588, 663, 595, 559, 601, 599, 575, 664, 694, 625, 544, 492, 543, 553, 557, 600, 651, 495, 481, 525, 576, 532, 510, 490, 438, 500, 427, 473, 580, 542, 522, 478, 521, 551, 516, 549, 559, 592, 556, 535, 578, 497, 524, 511, 484, 487, 492, 547, 527, 532, 496, 465, 491, 587, 552, 532, 515, 621, 531, 612, 514, 503, 549, 546, 645, 600, 632, 722, 618, 488, 596, 549, 476, 564, 590, 611, 578, 521, 501, 449, 508, 520, 576, 583, 512, 584, 602, 455, 454, 466, 514, 554, 525, 388, 457, 476, 442, 521, 516, 511, 541, 532, 485, 462, 477, 595, 600, 593, 561, 518, 478, 452, 547, 582, 587, 647, 582, 534, 512, 558, 632, 510, 438, 539, 600, 554, 468, 476, 514, 617, 533, 522, 663, 662, 531, 469, 498, 516, 526, 536, 639, 623, 581, 504, 458, 560, 564, 539, 482, 519, 561, 555, 504, 556, 597, 516, 451, 481, 582, 590, 473, 600, 757, 610, 511, 566, 783, 715, 452, 572, 631, 652, 639, 654, 662, 577, 546, 588, 587, 543, 595, 600, 533, 479, 585, 628, 531, 517, 610, 670, 593, 554, 594, 577, 558, 535, 562, 609, 595, 597, 586, 529, 557, 545, 560, 609, 552, 512, 533, 590, 519, 564, 539, 517, 541, 466, 541, 556, 535, 563, 576, 539, 574, 546, 534, 600, 527, 520, 559, 557, 471, 538, 562, 581, 546, 550, 575, 593, 565, 575, 557, 564, 573, 559, 545, 583, 511, 525, 598, 513, 437, 430, 501, 564, 507, 436, 491, 627, 539, 547, 545, 540, 512, 448, 550, 591, 523, 554, 574, 489, 536, 633, 629, 657, 495, 556, 544, 608, 581, 598, 737, 604, 541, 593, 482, 542, 572, 649, 709, 536, 581, 599, 460, 510, 593, 540, 557, 527, 538, 513, 536, 595, 556, 496, 541, 550, 534, 574, 509, 555, 508, 503, 562, 553, 527, 618, 631, 609, 567, 524, 571, 597, 635, 687, 593, 608, 641, 561, 627, 691, 752, 693, 650, 556, 623, 787, 752, 815, 1633, 2043, 1409, 723, 1503, 2752, 2395, 954, 4595, 6011, 3648, 1019, 3301, 6578, 5753, 1130, 6956, 9041, 5212, 1162, 4562, 9400, 8356, 1091, 4691, 6056, 3414, 978, 2965, 6470, 5906, 1047, 1037, 1486, 1062, 695, 1007, 1895, 2003, 898, 1416, 1196, 747, 698, 1267, 1712, 1171, 743, 1008, 899, 613, 656, 881, 1210, 965, 576, 660, 710, 630, 501, 643, 803, 740, 544, 726, 716, 636, 585, 596, 815, 695, 495, 681, 717, 661, 612, 550, 646, 609, 607, 692, 683, 585, 520, 673, 658, 570, 654, 722, 774, 662, 618, 805, 983, 930, 803, 1206, 1276, 873, 648, 1023, 1445, 1302, 862, 1365, 1507, 1013, 708, 1059, 1613, 1473, 945, 1351, 1273, 822, 735, 1021, 1415, 1156, 846, 1120, 1049, 666, 578, 759, 989, 916, 611, 679, 685, 623, 638, 605, 657, 675, 601, 616, 598, 620, 687, 643, 478, 611, 545, 579, 638, 647, 697, 656, 618, 628, 549, 574, 508, 574, 648, 584, 616, 511, 525, 515, 540, 580, 590, 537, 463, 494, 632, 700, 748, 586, 585, 543, 515, 542, 672, 748, 743, 564, 562, 610, 511, 583, 532, 675, 707, 588, 494, 492, 542, 542, 656, 790, 770, 581, 558, 630, 561, 635, 687, 937, 910, 566, 539, 612, 602, 552, 670, 748, 719, 541, 540, 481, 545, 584, 673, 703, 601, 512, 512, 609, 528, 555, 670, 672, 552, 449, 582, 704, 694, 626, 587, 747, 649, 543, 534, 585, 707, 568, 577, 606, 571, 633, 625, 513, 637, 593, 583, 559, 648, 605, 555, 523, 602, 633, 529, 473, 600, 636, 492, 514, 563, 573, 574, 464, 556, 628, 588, 609, 626, 606, 628, 560, 557, 530, 571, 675, 620, 573, 655, 550, 559, 622, 566, 614, 596, 625, 642, 661, 554, 550, 532, 665, 618, 536, 564, 681, 670, 660, 607, 675, 629, 527, 557, 654, 568, 645, 704, 713, 711, 539, 624, 700, 667, 623, 712, 729, 762, 639, 628, 677, 654, 702, 646, 636, 698, 646, 529, 629, 581, 575, 567, 519, 575, 538, 477, 669, 657, 516, 617, 605, 598, 554, 583, 645, 558, 529, 618, 611, 683, 565, 588, 579, 538, 530, 539, 651, 751, 675, 543, 500, 614, 517, 462, 587, 571, 587, 590, 596, 651, 595, 551, 576, 542, 549, 640, 660, 681, 609, 530, 552, 594, 628, 703, 591, 557, 581, 498, 519, 521, 623, 550, 577, 636, 679, 566, 476, 535, 497, 552, 583, 604, 673, 595, 584, 657, 600, 591, 525, 490, 511, 548, 539, 568, 605, 585, 667, 572, 578, 577, 592, 677, 604, 549, 612, 570, 530, 514, 589, 652, 608, 441, 508, 520, 517, 570, 610, 518, 443, 638, 572, 549, 579, 625, 645, 572, 583, 512, 580, 582, 461, 533, 582, 591, 621, 694, 695, 673, 551, 646, 648, 552, 655, 682, 609, 593, 601, 604, 588, 540, 595, 610, 637, 598, 575, 528, 574, 595, 532, 526, 494, 589, 610, 558, 607, 658, 651, 543, 545, 625, 555, 529, 533, 556, 612, 604, 574, 677, 585, 568, 574, 572, 592, 637, 639, 597, 560, 559, 565, 610, 630, 671, 585, 571, 577, 640, 613, 597, 683, 556, 546, 580, 561, 527, 543, 577, 530, 560, 569, 562, 554, 518, 603, 604, 534, 618, 543, 562, 538, 535, 536, 501, 621, 623, 487, 608, 605, 499, 518, 608, 626, 636, 570, 719, 745, 647, 515, 627, 727, 698, 658, 779, 849, 723, 589, 655, 736, 502, 572, 669, 651, 584, 660, 597, 515, 552, 608, 687, 656, 594, 558, 572, 598, 599, 466, 525, 643, 588, 489, 570, 598, 498, 567, 474, 547, 557, 473, 601, 548, 549, 522, 534, 627, 479, 414, 582, 574, 527, 537, 542, 583, 518, 385, 624, 650, 390, 426, 434, 467, 440, 430, 491, 417, 423, 514, 438, 422, 441, 498, 500, 419, 427, 435, 412, 437, 469, 457, 501, 506, 481, 415, 436, 433, 493, 480, 436, 467, 419, 425, 411, 379, 424, 479, 384, 372, 433, 431, 436, 356, 333, 392, 411, 423, 451, 421, 412, 400, 391, 400, 409, 425, 356, 406, 370, 364, 385, 419, 446, 410]"
0.42754310369491577,0.015248164534568787,0.21480029821395874,0.28123053908348083,0.2615511417388916,0.7384744882583618,0.26589447259902954,-0.4050694704055786,-0.9431362152099609,16.25,-0.2673112154006958,-0.7822036743164062,18.75,-0.23998844623565674,-0.5656242370605469,15.25,0.08788478374481201,0.1567840576171875,16.0,0.10533702373504639,0.1041412353515625,18.75,"[470, 565, 616, 562, 569, 564, 617, 562, 461, 606, 651, 597, 594, 638, 638, 550, 536, 647, 610, 566, 686, 733, 725, 548, 509, 578, 593, 549, 535, 595, 576, 477, 550, 448, 529, 567, 511, 469, 551, 573, 595, 543, 479, 558, 548, 488, 563, 578, 542, 427, 466, 527, 510, 479, 493, 489, 507, 428, 482, 514, 534, 549, 535, 507, 470, 465, 448, 503, 524, 475, 444, 467, 571, 522, 562, 598, 565, 474, 480, 603, 549, 580, 593, 578, 508, 402, 540, 616, 641, 549, 555, 650, 652, 545, 552, 598, 610, 499, 461, 537, 628, 579, 506, 607, 729, 639, 554, 569, 654, 648, 558, 588, 583, 575, 466, 457, 509, 523, 561, 526, 531, 575, 529, 501, 506, 424, 504, 553, 497, 563, 609, 542, 551, 472, 493, 506, 628, 577, 548, 562, 501, 510, 585, 563, 646, 497, 536, 544, 518, 468, 503, 598, 552, 533, 486, 552, 595, 505, 517, 629, 430, 479, 488, 566, 576, 506, 574, 537, 597, 533, 502, 579, 608, 531, 567, 561, 546, 545, 534, 563, 582, 537, 557, 592, 612, 596, 538, 649, 729, 571, 539, 618, 641, 662, 626, 568, 606, 640, 583, 617, 496, 556, 618, 561, 478, 536, 578, 563, 511, 556, 649, 593, 482, 543, 575, 541, 575, 606, 704, 587, 557, 639, 581, 629, 498, 556, 616, 575, 606, 517, 532, 515, 605, 681, 714, 719, 686, 600, 586, 596, 663, 714, 682, 633, 704, 657, 645, 677, 546, 500, 525, 587, 563, 580, 553, 581, 480, 451, 479, 516, 484, 480, 498, 476, 449, 469, 475, 593, 561, 552, 581, 457, 487, 439, 539, 669, 630, 527, 523, 614, 599, 608, 551, 629, 704, 662, 528, 559, 535, 524, 562, 596, 594, 556, 546, 546, 637, 597, 605, 542, 466, 490, 535, 623, 648, 664, 603, 638, 582, 475, 522, 584, 627, 575, 615, 617, 523, 546, 625, 642, 498, 506, 593, 537, 434, 503, 591, 576, 597, 567, 560, 524, 527, 548, 588, 619, 777, 947, 885, 624, 641, 784, 1099, 988, 1211, 1945, 1939, 1197, 845, 1669, 2691, 2251, 1602, 3093, 2821, 1685, 980, 2300, 2867, 1520, 1629, 4788, 4949, 2553, 1050, 3189, 4881, 3366, 1108, 3592, 3703, 1801, 922, 2148, 3501, 2578, 717, 1140, 1257, 872, 773, 754, 871, 991, 615, 716, 814, 613, 624, 839, 915, 820, 608, 659, 688, 664, 631, 717, 760, 695, 603, 680, 593, 550, 602, 600, 573, 582, 633, 648, 690, 700, 630, 635, 654, 681, 507, 532, 620, 583, 477, 548, 590, 591, 638, 665, 635, 585, 483, 650, 717, 639, 729, 775, 728, 583, 589, 690, 805, 785, 788, 927, 853, 726, 581, 749, 945, 912, 744, 848, 790, 673, 562, 646, 902, 838, 725, 717, 708, 578, 503, 691, 845, 761, 628, 655, 741, 533, 515, 664, 755, 694, 592, 686, 760, 644, 518, 584, 628, 691, 540, 608, 669, 722, 602, 511, 654, 657, 525, 494, 553, 571, 624, 546, 561, 637, 548, 558, 556, 542, 597, 617, 564, 563, 618, 752, 699, 582, 495, 625, 636, 494, 704, 795, 635, 590, 562, 628, 631, 556, 635, 592, 542, 658, 594, 515, 512, 611, 573, 564, 530, 618, 546, 505, 620, 670, 627, 636, 517, 466, 555, 562, 658, 640, 619, 695, 730, 565, 489, 598, 654, 609, 626, 577, 642, 554, 470, 576, 589, 565, 659, 588, 615, 631, 636, 636, 614, 622, 627, 647, 761, 719, 657, 645, 719, 694, 515, 552, 595, 610, 574, 563, 672, 591, 573, 598, 575, 565, 579, 627, 616, 598, 631, 650, 637, 600, 591, 638, 682, 662, 618, 586, 604, 640, 569, 537, 588, 671, 576, 547, 539, 597, 558, 503, 557, 579, 555, 622, 706, 632, 566, 667, 713, 524, 665, 705, 668, 689, 659, 663, 617, 580, 555, 564, 661, 645, 545, 570, 647, 637, 500, 522, 581, 566, 532, 540, 624, 518, 553, 613, 602, 632, 576, 556, 574, 536, 620, 619, 684, 704, 609, 649, 648, 618, 599, 618, 638, 654, 596, 650, 661, 601, 625, 526, 580, 644, 594, 581, 635, 626, 649, 490, 561, 663, 577, 558, 642, 700, 550, 516, 519, 603, 618, 661, 654, 569, 514, 565, 616, 635, 582, 457, 538, 561, 502, 668, 721, 616, 578, 527, 603, 558, 568, 660, 686, 666, 637, 583, 583, 607, 583, 595, 554, 618, 638, 496, 491, 511, 624, 655, 600, 624, 614, 530, 641, 674, 473, 544, 445, 483, 511, 531, 549, 481, 618, 597, 486, 497, 546, 571, 520, 515, 585, 561, 561, 545, 557, 540, 514, 549, 625, 632, 565, 619, 657, 632, 623, 671, 610, 575, 535, 588, 600, 574, 620, 591, 574, 557, 580, 598, 577, 568, 562, 517, 539, 664, 549, 587, 628, 661, 561, 519, 591, 631, 537, 528, 706, 639, 552, 603, 687, 614, 541, 596, 689, 623, 561, 628, 721, 594, 522, 619, 613, 630, 544, 601, 645, 652, 544, 566, 584, 546, 585, 588, 588, 603, 602, 527, 636, 593, 620, 600, 550, 585, 563, 514, 619, 621, 577, 566, 601, 580, 548, 589, 625, 565, 572, 647, 579, 512, 477, 551, 609, 611, 598, 617, 457, 434, 428, 545, 552, 542, 670, 613, 476, 497, 544, 542, 563, 526, 515, 580, 617, 644, 637, 630, 602, 625, 628, 608, 594, 608, 591, 672, 613, 613, 694, 589, 557, 611, 601, 616, 593, 559, 587, 494, 649, 664, 554, 530, 518, 562, 637, 579, 579, 616, 608, 592, 503, 561, 630, 586, 412, 401, 497, 498, 486, 482, 491, 477, 537, 471, 468, 446, 451, 491, 441, 457, 472, 495, 521, 521, 505, 521, 526, 502, 475, 551, 618, 558, 410, 524, 667, 536, 490, 533, 524, 490, 543, 571, 511, 499, 454, 526, 529, 436, 507, 558, 558, 507, 418, 505, 533, 465, 449, 535, 509, 445, 431, 460, 485, 490, 521, 512, 508, 464, 393, 409, 456, 468, 437, 482, 490, 442, 443, 371, 446, 497, 424, 384, 400, 471, 396, 377, 374, 373, 336, 365, 393, 402, 428, 406, 379, 383, 411, 403, 370, 416, 421, 411, 382, 449, 428, 335, 414, 454, 440, 502, 437, 431, 386, 425, 462, 403]"
0.35867929458618164,0.1442614495754242,0.3042309880256653,0.013731732964515686,0.2932930588722229,0.5573999881744385,-0.15013712644577026,-1.3656153678894043,1.746511459350586,16.0,-0.0724329948425293,0.20399093627929688,16.0,0.16274309158325195,0.244903564453125,16.5,0.21338319778442383,0.37021636962890625,23.5,0.23913240432739258,0.3715038299560547,23.5,"[545, 571, 553, 564, 646, 560, 555, 578, 519, 554, 558, 609, 810, 731, 542, 507, 507, 542, 579, 557, 662, 632, 571, 528, 505, 521, 517, 547, 552, 437, 515, 524, 540, 513, 481, 504, 538, 485, 529, 550, 510, 493, 509, 552, 536, 564, 581, 529, 534, 572, 536, 559, 542, 569, 630, 563, 600, 520, 471, 511, 509, 523, 531, 563, 531, 486, 410, 529, 594, 530, 468, 524, 538, 519, 485, 555, 585, 530, 476, 502, 465, 483, 561, 516, 521, 492, 483, 501, 522, 549, 641, 559, 495, 598, 606, 545, 568, 581, 535, 493, 542, 603, 610, 559, 552, 635, 561, 514, 487, 487, 568, 528, 565, 600, 550, 525, 524, 475, 634, 629, 550, 619, 580, 534, 519, 553, 642, 577, 534, 443, 527, 595, 497, 566, 522, 475, 604, 621, 536, 612, 646, 618, 547, 499, 541, 682, 667, 600, 584, 523, 526, 456, 580, 615, 601, 631, 623, 633, 630, 564, 558, 527, 553, 615, 580, 627, 647, 637, 579, 581, 618, 634, 682, 633, 692, 731, 594, 583, 561, 564, 659, 638, 559, 630, 630, 668, 664, 608, 605, 539, 631, 543, 635, 619, 593, 582, 528, 487, 567, 627, 520, 492, 603, 644, 580, 486, 486, 550, 565, 580, 567, 563, 522, 547, 536, 550, 606, 559, 562, 538, 557, 592, 519, 626, 550, 508, 498, 553, 647, 648, 644, 633, 600, 627, 561, 559, 662, 702, 793, 673, 612, 606, 543, 523, 616, 748, 727, 600, 562, 598, 529, 541, 529, 559, 546, 499, 486, 535, 535, 517, 531, 552, 502, 409, 496, 540, 527, 517, 541, 555, 576, 497, 550, 571, 525, 568, 458, 419, 492, 493, 545, 574, 526, 597, 559, 449, 504, 462, 615, 594, 490, 550, 566, 587, 632, 591, 602, 617, 503, 505, 581, 553, 567, 574, 526, 524, 504, 520, 571, 488, 479, 498, 628, 628, 511, 524, 622, 636, 520, 557, 586, 524, 521, 514, 584, 598, 515, 572, 569, 478, 552, 554, 538, 575, 630, 654, 602, 658, 709, 695, 617, 510, 730, 723, 721, 1136, 1268, 884, 680, 1091, 1823, 1569, 1010, 1919, 2501, 1556, 756, 1765, 3331, 2999, 650, 1550, 2089, 1431, 590, 1371, 2472, 2185, 674, 714, 873, 781, 535, 709, 827, 746, 691, 899, 911, 735, 581, 1024, 1269, 929, 716, 1212, 1026, 683, 711, 1126, 1359, 842, 652, 982, 913, 639, 608, 799, 942, 755, 567, 744, 760, 593, 583, 549, 683, 690, 690, 845, 901, 630, 564, 696, 1076, 1076, 1489, 2228, 2676, 1370, 752, 2066, 3953, 3718, 2097, 5232, 5626, 2366, 1071, 5077, 8937, 7399, 1446, 5575, 5704, 2312, 986, 5413, 9165, 7186, 706, 2546, 2547, 1229, 702, 2327, 3881, 2994, 646, 964, 838, 615, 557, 801, 1019, 787, 641, 602, 631, 610, 579, 559, 650, 676, 593, 527, 504, 570, 659, 655, 594, 605, 588, 602, 585, 572, 622, 560, 601, 624, 602, 581, 517, 550, 590, 626, 622, 573, 595, 658, 581, 524, 572, 723, 633, 527, 574, 645, 619, 527, 542, 612, 541, 526, 629, 587, 588, 606, 519, 529, 529, 590, 578, 617, 652, 607, 560, 591, 543, 590, 555, 622, 681, 542, 578, 671, 712, 666, 566, 651, 639, 603, 586, 591, 651, 590, 582, 691, 621, 653, 680, 730, 695, 587, 614, 633, 611, 608, 671, 750, 702, 547, 607, 617, 609, 616, 740, 784, 654, 589, 692, 699, 619, 538, 555, 651, 587, 627, 715, 638, 581, 510, 569, 730, 625, 598, 646, 611, 567, 500, 633, 677, 522, 562, 640, 692, 687, 586, 544, 590, 550, 561, 594, 594, 677, 562, 547, 612, 653, 657, 600, 658, 695, 641, 642, 658, 657, 625, 633, 603, 551, 565, 605, 625, 554, 629, 598, 632, 550, 582, 646, 624, 667, 651, 659, 706, 646, 571, 675, 692, 659, 616, 692, 734, 682, 606, 620, 603, 614, 621, 745, 786, 645, 628, 688, 668, 655, 634, 698, 642, 625, 684, 689, 641, 738, 615, 619, 608, 656, 608, 557, 612, 665, 680, 571, 610, 564, 537, 534, 568, 598, 559, 718, 711, 557, 630, 697, 644, 594, 612, 641, 663, 605, 707, 786, 680, 559, 641, 586, 576, 636, 741, 718, 617, 630, 615, 737, 624, 738, 745, 646, 580, 618, 735, 562, 507, 670, 705, 572, 573, 575, 586, 479, 556, 628, 536, 497, 588, 635, 583, 450, 507, 595, 535, 475, 571, 652, 545, 564, 584, 580, 585, 536, 509, 567, 568, 467, 508, 484, 538, 614, 557, 575, 567, 460, 518, 515, 524, 515, 620, 663, 483, 445, 648, 608, 513, 529, 710, 683, 495, 518, 599, 569, 519, 601, 653, 632, 534, 474, 487, 478, 468, 506, 564, 486, 435, 533, 595, 603, 596, 597, 584, 593, 524, 565, 609, 613, 600, 526, 469, 527, 523, 557, 501, 565, 579, 471, 500, 477, 531, 610, 498, 506, 541, 567, 550, 474, 563, 616, 529, 580, 632, 556, 583, 586, 638, 544, 512, 560, 629, 620, 510, 511, 552, 562, 543, 636, 670, 594, 573, 658, 565, 534, 628, 771, 626, 616, 708, 687, 557, 493, 519, 632, 545, 583, 660, 670, 649, 551, 521, 524, 560, 694, 718, 652, 623, 616, 622, 497, 612, 657, 573, 568, 550, 685, 702, 671, 662, 623, 558, 659, 642, 549, 607, 712, 641, 652, 740, 849, 801, 616, 650, 624, 546, 711, 759, 773, 735, 591, 572, 590, 568, 566, 578, 586, 578, 585, 541, 520, 564, 564, 536, 567, 583, 625, 546, 453, 557, 684, 652, 581, 586, 612, 613, 678, 604, 583, 672, 635, 581, 617, 600, 584, 599, 595, 587, 637, 638, 557, 619, 620, 542, 482, 450, 545, 590, 569, 493, 536, 602, 513, 500, 521, 583, 613, 555, 598, 609, 472, 515, 599, 646, 482, 596, 530, 505, 538, 565, 541, 507, 521, 514, 382, 409, 446, 471, 523, 513, 482, 523, 483, 435, 446, 473, 563, 528, 417, 455, 467, 435, 423, 462, 462, 436, 393, 370, 363, 400, 386, 442, 526, 484, 436, 464, 423, 439, 458, 450, 484, 421, 462, 451, 438, 442, 518, 501, 468, 480, 418, 424, 420, 400, 432, 406, 393, 399, 402, 432, 462, 451, 428, 470, 491, 485]"
0.16463437676429749,-0.0069119855761528015,0.3684675693511963,0.1411396563053131,0.0510067492723465,0.6612162590026855,0.11925254762172699,-0.36557233333587646,-0.8854866027832031,21.75,-0.3352454900741577,-0.8371353149414062,18.75,-0.015383124351501465,0.15506744384765625,18.0,-0.00594174861907959,0.05207061767578125,21.5,-0.003366827964782715,0.10471343994140625,19.0,"[493, 660, 729, 632, 508, 633, 731, 656, 512, 603, 623, 668, 593, 589, 697, 652, 606, 552, 575, 584, 569, 587, 633, 575, 513, 487, 470, 465, 443, 497, 547, 582, 607, 533, 528, 554, 538, 538, 610, 618, 567, 498, 493, 517, 497, 476, 537, 537, 464, 485, 535, 470, 445, 491, 507, 512, 447, 510, 581, 497, 473, 511, 518, 468, 414, 542, 555, 424, 407, 409, 428, 429, 542, 619, 583, 461, 489, 518, 480, 478, 560, 588, 549, 552, 555, 561, 524, 540, 529, 570, 516, 548, 589, 477, 480, 508, 467, 522, 415, 396, 466, 546, 538, 444, 509, 473, 370, 465, 531, 560, 563, 546, 442, 424, 474, 528, 534, 543, 525, 503, 486, 489, 553, 558, 522, 545, 572, 551, 543, 535, 587, 556, 508, 566, 594, 552, 531, 538, 564, 580, 511, 581, 594, 592, 611, 557, 471, 565, 585, 514, 497, 532, 575, 569, 554, 550, 545, 562, 562, 533, 522, 498, 530, 513, 598, 642, 445, 489, 529, 472, 509, 572, 628, 565, 524, 635, 508, 548, 539, 563, 657, 617, 627, 586, 515, 555, 536, 604, 572, 529, 529, 500, 466, 473, 421, 470, 525, 496, 454, 473, 613, 575, 464, 553, 547, 484, 470, 533, 597, 469, 449, 596, 482, 462, 554, 565, 561, 484, 519, 537, 504, 593, 617, 587, 525, 534, 565, 545, 512, 574, 626, 573, 542, 608, 570, 519, 564, 608, 583, 541, 452, 521, 645, 533, 517, 606, 578, 511, 564, 481, 600, 627, 590, 508, 615, 672, 540, 470, 526, 566, 608, 548, 541, 589, 601, 534, 501, 582, 631, 618, 650, 650, 481, 524, 480, 535, 543, 527, 558, 501, 460, 514, 584, 625, 528, 564, 617, 564, 564, 589, 524, 438, 465, 600, 591, 487, 610, 589, 476, 464, 515, 497, 402, 453, 552, 572, 501, 532, 578, 469, 448, 512, 648, 647, 491, 607, 701, 589, 531, 579, 563, 637, 531, 526, 603, 527, 530, 577, 654, 670, 593, 574, 603, 557, 521, 563, 557, 643, 657, 569, 602, 637, 712, 585, 628, 1115, 1168, 733, 518, 969, 1389, 1045, 837, 3380, 3819, 2122, 702, 2564, 4306, 3246, 923, 5370, 6207, 3447, 730, 3685, 6423, 4956, 1068, 4032, 4533, 2357, 706, 2656, 4613, 3614, 956, 1147, 1307, 951, 704, 940, 1486, 1375, 670, 1060, 1330, 982, 570, 645, 1166, 1140, 703, 1184, 1270, 769, 627, 769, 1151, 1105, 623, 762, 959, 676, 576, 710, 949, 1004, 704, 945, 920, 678, 600, 880, 1133, 1035, 729, 1041, 1001, 673, 634, 870, 1303, 1106, 620, 819, 816, 630, 569, 734, 1158, 1006, 534, 707, 676, 495, 617, 623, 799, 763, 509, 618, 617, 518, 596, 633, 623, 578, 563, 742, 706, 596, 645, 705, 716, 589, 637, 770, 713, 649, 645, 680, 748, 585, 644, 659, 597, 625, 578, 553, 582, 632, 660, 605, 616, 637, 527, 520, 577, 664, 697, 595, 627, 599, 513, 524, 599, 726, 576, 529, 633, 563, 497, 585, 596, 608, 599, 524, 642, 654, 586, 557, 574, 599, 589, 530, 593, 567, 539, 616, 619, 672, 643, 531, 574, 607, 553, 574, 584, 623, 657, 644, 603, 621, 581, 520, 458, 568, 633, 624, 644, 608, 595, 539, 446, 548, 630, 729, 664, 656, 645, 635, 593, 569, 518, 553, 602, 596, 536, 585, 609, 551, 609, 602, 597, 617, 547, 586, 554, 551, 579, 608, 586, 533, 520, 599, 604, 561, 532, 648, 600, 464, 548, 625, 557, 533, 629, 576, 632, 626, 568, 623, 670, 695, 721, 649, 545, 671, 677, 666, 680, 704, 653, 629, 520, 617, 674, 695, 652, 552, 596, 588, 502, 542, 604, 685, 617, 540, 583, 567, 534, 589, 553, 627, 654, 494, 591, 625, 636, 615, 628, 662, 636, 538, 674, 617, 663, 646, 597, 596, 641, 654, 666, 637, 612, 646, 599, 597, 610, 618, 570, 576, 520, 501, 546, 596, 468, 512, 608, 475, 563, 570, 517, 467, 554, 693, 507, 575, 517, 574, 606, 517, 481, 540, 564, 664, 602, 623, 607, 594, 548, 478, 654, 684, 618, 545, 549, 582, 534, 476, 593, 589, 708, 671, 523, 579, 683, 693, 649, 627, 594, 575, 617, 678, 662, 682, 573, 579, 580, 549, 591, 651, 576, 594, 604, 588, 531, 562, 592, 560, 557, 549, 595, 613, 526, 579, 597, 639, 595, 478, 539, 570, 527, 579, 606, 622, 603, 510, 557, 496, 571, 603, 649, 675, 611, 513, 529, 615, 644, 704, 622, 616, 659, 509, 626, 606, 645, 644, 576, 624, 626, 535, 654, 575, 616, 653, 611, 599, 545, 621, 737, 547, 497, 601, 583, 583, 526, 602, 587, 590, 606, 634, 595, 502, 503, 602, 529, 674, 663, 656, 647, 531, 614, 559, 505, 610, 674, 688, 598, 573, 611, 602, 513, 631, 687, 597, 449, 556, 611, 511, 545, 557, 615, 544, 488, 616, 547, 474, 541, 563, 613, 568, 609, 657, 617, 567, 569, 705, 739, 599, 615, 643, 617, 550, 542, 621, 616, 495, 535, 620, 568, 496, 523, 499, 508, 485, 503, 524, 587, 516, 659, 626, 520, 599, 643, 509, 456, 596, 649, 603, 536, 649, 648, 595, 593, 622, 538, 552, 542, 686, 660, 516, 515, 515, 636, 602, 569, 619, 638, 529, 491, 593, 654, 574, 521, 604, 616, 493, 494, 559, 684, 642, 524, 586, 579, 589, 589, 623, 549, 507, 515, 534, 573, 560, 510, 505, 492, 505, 514, 537, 580, 492, 478, 551, 514, 586, 556, 529, 517, 568, 546, 506, 566, 573, 619, 607, 518, 540, 586, 618, 563, 515, 552, 520, 473, 582, 547, 571, 520, 539, 575, 535, 563, 564, 448, 497, 495, 495, 564, 559, 532, 539, 474, 519, 459, 437, 434, 429, 458, 513, 472, 453, 484, 506, 476, 425, 471, 468, 422, 454, 460, 406, 382, 401, 438, 406, 354, 469, 492, 469, 465, 442, 439, 403, 407, 479, 517, 508, 491, 481, 467, 517, 491, 474, 487, 492, 468, 461, 462, 508, 476, 422, 383, 386, 341, 399, 387, 404, 387, 349, 393, 411, 413, 398, 378, 464, 374, 348, 541, 474, 383, 421, 478, 456, 436, 506, 435, 446, 494, 469, 380, 397, 393, 352]"
0.36921682953834534,0.14962098002433777,0.3925021290779114,0.1728726029396057,0.2959514856338501,0.8956894874572754,-0.04317009449005127,-0.03114032745361328,0.051784515380859375,19.25,-0.020697593688964844,0.10442733764648438,24.5,-0.011256217956542969,0.20971298217773438,23.0,0.2259225845336914,-0.12216567993164062,16.5,0.29430103302001953,-0.1849651336669922,19.5,"[592, 561, 520, 617, 594, 618, 518, 561, 643, 610, 597, 718, 707, 635, 616, 665, 590, 541, 549, 601, 557, 595, 590, 565, 594, 580, 492, 492, 547, 550, 569, 565, 574, 511, 411, 492, 522, 427, 466, 543, 544, 465, 438, 560, 482, 456, 524, 544, 566, 539, 494, 619, 543, 551, 649, 569, 552, 576, 539, 571, 565, 537, 579, 560, 584, 521, 536, 590, 562, 446, 442, 522, 584, 544, 480, 471, 563, 538, 500, 563, 600, 618, 473, 478, 531, 609, 512, 484, 522, 574, 577, 534, 537, 576, 469, 454, 520, 547, 605, 535, 450, 538, 525, 497, 575, 615, 604, 602, 554, 520, 543, 523, 590, 592, 502, 544, 599, 521, 514, 553, 580, 615, 544, 552, 654, 634, 526, 557, 503, 601, 595, 515, 571, 513, 535, 546, 518, 612, 585, 573, 562, 513, 537, 487, 566, 548, 575, 567, 546, 563, 547, 582, 619, 566, 619, 562, 490, 560, 522, 626, 527, 473, 561, 504, 453, 505, 528, 608, 526, 548, 614, 598, 502, 557, 524, 534, 564, 596, 650, 583, 521, 486, 515, 553, 597, 617, 524, 499, 555, 642, 577, 528, 607, 584, 494, 507, 543, 504, 459, 476, 565, 573, 522, 472, 550, 619, 586, 537, 537, 491, 610, 624, 526, 569, 566, 588, 412, 499, 632, 591, 437, 545, 600, 504, 540, 521, 532, 545, 567, 502, 528, 535, 587, 532, 499, 568, 588, 559, 542, 559, 487, 440, 532, 594, 528, 564, 585, 495, 482, 550, 553, 530, 561, 599, 597, 538, 566, 660, 599, 527, 580, 554, 548, 537, 522, 521, 497, 458, 460, 494, 511, 446, 537, 566, 561, 572, 548, 604, 678, 583, 636, 626, 645, 611, 527, 624, 629, 583, 582, 602, 558, 571, 584, 586, 493, 486, 520, 551, 506, 507, 524, 564, 585, 500, 568, 578, 498, 457, 551, 533, 492, 487, 580, 547, 467, 412, 499, 419, 493, 555, 507, 431, 451, 520, 496, 430, 476, 532, 540, 575, 628, 608, 540, 625, 584, 521, 549, 557, 594, 584, 547, 573, 572, 580, 735, 1073, 1421, 1030, 693, 933, 1592, 1509, 871, 3906, 5235, 3346, 1015, 2523, 5071, 4509, 1213, 7230, 9376, 5527, 1104, 4577, 9181, 8116, 796, 5958, 7262, 3886, 621, 4127, 7802, 6613, 881, 1875, 1736, 772, 759, 1748, 2352, 1552, 1117, 1000, 1133, 988, 775, 1003, 1195, 1218, 824, 1143, 1132, 900, 729, 1120, 1439, 1139, 661, 834, 924, 779, 599, 700, 830, 722, 582, 1148, 1306, 870, 486, 851, 1330, 1090, 1143, 3441, 3829, 1906, 796, 2590, 4862, 4119, 1438, 5983, 6237, 2875, 1120, 4889, 8486, 6584, 1508, 4713, 4553, 2207, 1069, 3975, 6384, 4572, 1087, 1865, 1652, 955, 795, 1481, 2212, 1701, 799, 1077, 1030, 657, 569, 808, 1120, 989, 830, 1182, 934, 485, 523, 873, 1079, 737, 700, 900, 831, 545, 543, 695, 792, 679, 622, 564, 556, 605, 658, 603, 615, 601, 589, 559, 593, 546, 569, 630, 610, 570, 572, 622, 611, 502, 450, 628, 676, 554, 581, 638, 616, 564, 569, 597, 580, 549, 657, 826, 774, 657, 695, 622, 704, 708, 778, 1063, 1045, 785, 809, 712, 720, 719, 699, 901, 899, 665, 789, 815, 767, 688, 574, 774, 783, 566, 671, 785, 800, 645, 667, 1065, 1071, 626, 623, 754, 808, 682, 697, 979, 964, 591, 572, 662, 791, 741, 657, 717, 708, 528, 646, 627, 684, 687, 597, 697, 610, 503, 583, 596, 595, 537, 607, 677, 603, 539, 575, 656, 686, 598, 537, 547, 536, 583, 571, 556, 538, 520, 575, 501, 555, 632, 578, 633, 612, 590, 689, 542, 632, 639, 582, 553, 597, 737, 649, 606, 656, 599, 657, 619, 531, 642, 652, 619, 606, 602, 627, 620, 602, 637, 592, 633, 562, 636, 637, 600, 655, 664, 656, 722, 751, 796, 699, 643, 728, 719, 658, 639, 589, 722, 717, 698, 746, 705, 618, 572, 471, 636, 722, 622, 580, 599, 577, 594, 554, 667, 632, 552, 569, 508, 546, 516, 553, 582, 528, 572, 610, 589, 586, 593, 625, 574, 555, 588, 648, 667, 652, 618, 605, 557, 532, 625, 569, 562, 598, 636, 593, 638, 676, 663, 576, 616, 533, 625, 624, 627, 675, 650, 599, 556, 663, 597, 635, 653, 553, 605, 699, 708, 583, 614, 608, 533, 511, 563, 617, 649, 557, 515, 598, 571, 488, 480, 709, 736, 620, 637, 627, 609, 570, 648, 699, 639, 564, 581, 631, 566, 553, 618, 686, 643, 581, 467, 534, 549, 508, 552, 567, 603, 585, 553, 589, 601, 536, 535, 551, 562, 566, 497, 619, 593, 540, 468, 527, 615, 648, 568, 642, 728, 619, 529, 601, 727, 550, 544, 578, 609, 537, 485, 603, 575, 530, 645, 641, 585, 525, 614, 654, 473, 610, 681, 562, 562, 667, 705, 607, 537, 674, 649, 530, 624, 749, 737, 693, 616, 604, 606, 544, 583, 650, 595, 441, 530, 600, 570, 623, 601, 611, 646, 504, 496, 608, 563, 542, 633, 607, 590, 625, 555, 553, 589, 494, 512, 481, 445, 570, 543, 588, 582, 507, 567, 559, 550, 646, 656, 582, 606, 605, 599, 496, 547, 713, 649, 500, 572, 652, 614, 492, 592, 661, 539, 575, 638, 613, 630, 567, 585, 611, 516, 659, 665, 644, 696, 611, 605, 684, 635, 640, 654, 639, 670, 641, 631, 748, 745, 529, 527, 546, 620, 713, 569, 651, 690, 597, 602, 646, 661, 673, 694, 664, 641, 621, 629, 676, 640, 575, 534, 636, 621, 591, 564, 559, 568, 589, 637, 585, 567, 564, 521, 605, 546, 519, 588, 550, 614, 624, 594, 650, 660, 562, 524, 583, 653, 667, 619, 672, 669, 565, 527, 553, 604, 661, 649, 643, 699, 600, 493, 582, 622, 548, 637, 634, 572, 576, 633, 649, 611, 593, 535, 559, 579, 534, 458, 478, 588, 538, 485, 487, 513, 510, 458, 456, 551, 532, 511, 508, 529, 483, 478, 482, 502, 540, 476, 433, 492, 527, 525, 520, 508, 462, 525, 458, 378, 445, 501, 510, 441, 473, 487, 409, 343, 468, 442, 375, 437, 399, 451, 424, 386, 409, 405, 358, 358, 391, 456, 492, 446, 407, 450, 449, 425, 374, 344, 395, 380, 336, 375, 381, 366]"
0.037759654223918915,0.17361383140087128,-0.0059542059898376465,-0.5906449556350708,-0.15666677057743073,-0.4600081145763397,-0.8073647618293762,-0.1588456630706787,0.3602027893066406,17.5,-0.13352560997009277,-0.10485649108886719,16.0,-0.11120963096618652,0.10385513305664062,19.5,0.25414299964904785,-0.5247116088867188,17.25,0.2634413242340088,-0.32629966735839844,16.5,"[519, 634, 574, 612, 690, 615, 574, 636, 554, 557, 567, 591, 719, 657, 557, 605, 495, 516, 547, 573, 634, 612, 525, 537, 472, 497, 466, 413, 564, 615, 587, 519, 433, 375, 421, 453, 448, 442, 511, 513, 430, 403, 437, 511, 564, 518, 497, 467, 530, 495, 546, 588, 613, 556, 637, 637, 555, 513, 477, 557, 621, 582, 522, 550, 552, 543, 452, 458, 533, 565, 494, 500, 504, 454, 504, 556, 594, 509, 499, 579, 497, 462, 566, 585, 489, 519, 591, 528, 492, 463, 517, 578, 530, 593, 585, 508, 463, 462, 474, 527, 461, 433, 454, 474, 493, 493, 622, 565, 504, 451, 531, 609, 563, 559, 655, 618, 545, 451, 521, 614, 579, 530, 579, 644, 674, 682, 594, 574, 524, 495, 507, 581, 653, 635, 501, 438, 498, 548, 500, 465, 539, 581, 475, 421, 530, 664, 617, 479, 605, 607, 528, 528, 594, 608, 614, 574, 685, 629, 628, 662, 519, 589, 575, 573, 570, 523, 490, 530, 552, 542, 556, 626, 627, 510, 518, 595, 556, 536, 528, 646, 652, 520, 552, 536, 555, 564, 448, 528, 502, 483, 565, 570, 576, 588, 539, 482, 516, 486, 515, 560, 624, 647, 642, 559, 586, 495, 532, 669, 496, 621, 687, 552, 442, 585, 683, 560, 556, 611, 635, 580, 487, 578, 599, 524, 582, 593, 551, 534, 554, 543, 484, 502, 609, 653, 604, 610, 616, 621, 618, 612, 583, 635, 546, 491, 535, 642, 615, 511, 425, 532, 531, 471, 489, 553, 629, 483, 433, 484, 504, 463, 443, 490, 516, 447, 580, 508, 531, 539, 510, 599, 604, 448, 555, 485, 527, 570, 574, 556, 507, 574, 592, 621, 605, 569, 561, 556, 600, 627, 571, 506, 493, 494, 430, 456, 506, 521, 532, 546, 543, 532, 583, 564, 494, 543, 527, 652, 604, 546, 614, 605, 602, 567, 539, 571, 622, 641, 618, 647, 656, 605, 572, 529, 546, 585, 668, 595, 521, 551, 623, 635, 558, 587, 636, 585, 464, 582, 611, 566, 633, 550, 531, 537, 590, 670, 862, 1042, 1266, 903, 586, 964, 1779, 1685, 1550, 2367, 3310, 2003, 894, 1957, 4204, 4137, 1860, 2973, 4328, 2674, 1188, 2309, 5167, 5184, 1444, 1842, 3028, 2049, 943, 1395, 3358, 3610, 849, 923, 1286, 1147, 756, 716, 1447, 1544, 521, 1008, 882, 751, 726, 789, 1211, 917, 686, 716, 836, 713, 619, 709, 832, 849, 855, 1181, 1179, 757, 630, 942, 1236, 1006, 716, 822, 836, 773, 656, 697, 791, 750, 651, 893, 850, 699, 633, 667, 817, 730, 638, 842, 851, 638, 662, 692, 683, 619, 652, 537, 535, 517, 554, 596, 482, 573, 983, 1262, 1490, 939, 669, 1042, 1726, 1725, 1259, 3165, 3589, 1657, 637, 2285, 4442, 3969, 1238, 3746, 4037, 1841, 778, 2697, 4838, 4054, 927, 2414, 2514, 1304, 764, 1749, 2878, 2282, 674, 1314, 1402, 939, 603, 946, 1431, 1174, 605, 725, 766, 705, 492, 559, 792, 699, 605, 619, 627, 696, 581, 554, 679, 644, 630, 553, 590, 579, 566, 612, 604, 605, 672, 759, 651, 577, 578, 693, 676, 578, 667, 796, 789, 631, 552, 564, 627, 611, 599, 785, 764, 534, 545, 620, 605, 567, 591, 830, 853, 566, 591, 685, 670, 662, 791, 1279, 1231, 644, 707, 755, 771, 672, 805, 1288, 1324, 812, 749, 783, 727, 593, 704, 755, 804, 764, 686, 710, 676, 624, 678, 656, 654, 721, 642, 662, 702, 620, 606, 616, 632, 599, 509, 587, 651, 604, 534, 587, 588, 530, 513, 546, 563, 572, 609, 615, 609, 560, 602, 634, 570, 580, 627, 602, 572, 615, 668, 679, 584, 558, 592, 633, 529, 584, 642, 606, 550, 522, 585, 674, 610, 608, 668, 605, 538, 506, 599, 612, 568, 575, 623, 637, 558, 445, 521, 529, 592, 555, 538, 661, 651, 486, 528, 526, 607, 523, 524, 552, 540, 570, 621, 565, 586, 614, 581, 577, 519, 548, 579, 624, 596, 589, 538, 505, 546, 543, 646, 609, 534, 527, 642, 611, 550, 638, 631, 637, 541, 469, 591, 644, 578, 581, 648, 667, 592, 615, 627, 609, 548, 482, 574, 700, 626, 621, 632, 638, 625, 543, 574, 605, 536, 623, 619, 584, 596, 608, 539, 647, 682, 533, 512, 576, 644, 660, 664, 539, 548, 517, 619, 680, 657, 681, 695, 565, 523, 600, 659, 659, 620, 666, 605, 593, 534, 570, 659, 617, 518, 541, 575, 602, 499, 612, 687, 566, 526, 533, 600, 589, 600, 674, 630, 575, 574, 521, 590, 611, 604, 653, 588, 445, 477, 505, 593, 639, 642, 662, 593, 561, 549, 502, 532, 641, 586, 566, 601, 586, 579, 544, 523, 608, 566, 508, 565, 554, 554, 552, 522, 595, 588, 445, 507, 588, 519, 512, 640, 639, 604, 487, 588, 616, 560, 606, 629, 572, 487, 548, 680, 564, 472, 588, 670, 612, 525, 543, 660, 603, 545, 631, 619, 612, 599, 578, 573, 548, 631, 663, 494, 600, 585, 584, 583, 604, 603, 532, 552, 613, 623, 567, 539, 557, 555, 577, 636, 611, 624, 561, 529, 450, 559, 658, 738, 662, 577, 660, 751, 627, 617, 749, 658, 635, 537, 608, 652, 571, 564, 641, 580, 577, 621, 589, 519, 569, 614, 645, 596, 621, 594, 587, 551, 605, 610, 521, 654, 687, 672, 529, 512, 600, 633, 619, 665, 614, 590, 556, 664, 619, 642, 630, 661, 716, 611, 590, 621, 687, 781, 714, 637, 635, 558, 562, 585, 569, 653, 627, 569, 618, 621, 659, 630, 561, 588, 538, 601, 565, 592, 563, 570, 646, 552, 608, 630, 608, 573, 514, 527, 570, 528, 623, 563, 543, 509, 494, 533, 505, 546, 598, 493, 565, 583, 501, 446, 490, 511, 515, 436, 491, 613, 580, 479, 492, 565, 535, 458, 441, 503, 485, 506, 548, 503, 497, 432, 469, 487, 518, 492, 524, 504, 464, 430, 400, 499, 516, 457, 448, 470, 484, 411, 446, 480, 434, 360, 444, 503, 459, 414, 424, 529, 477, 436, 455, 450, 492, 419, 415, 379, 402, 482, 479, 360, 355, 456, 422, 346, 418, 447, 370, 346, 413, 397, 379, 442, 497, 457, 422, 399, 382, 419, 377, 419, 457, 455, 476, 434, 449]"
0.07200896739959717,-0.2641041576862335,-0.13963289558887482,-0.3927966058254242,-0.7699860334396362,-0.5517541170120239,-0.43715643882751465,-0.1148761510848999,-0.6204128265380859,25.5,-0.10643613338470459,0.25391578674316406,20.25,-0.09227406978607178,0.20499229431152344,26.25,-0.07553708553314209,0.30956268310546875,26.25,0.027316689491271973,0.0,20.25,"[603, 564, 507, 643, 780, 643, 501, 561, 594, 525, 542, 687, 726, 630, 624, 605, 473, 515, 540, 536, 531, 539, 476, 496, 446, 463, 547, 539, 460, 464, 477, 430, 456, 445, 466, 477, 493, 481, 499, 521, 514, 462, 441, 524, 443, 411, 473, 507, 528, 516, 457, 471, 524, 517, 528, 498, 518, 525, 482, 494, 542, 504, 572, 584, 529, 505, 507, 478, 485, 479, 561, 611, 649, 540, 468, 521, 502, 554, 576, 658, 610, 575, 455, 517, 494, 533, 531, 490, 519, 560, 508, 527, 517, 464, 479, 475, 440, 471, 526, 486, 460, 474, 533, 487, 506, 561, 574, 528, 455, 471, 528, 547, 530, 538, 571, 568, 460, 546, 624, 524, 670, 591, 569, 532, 556, 567, 467, 557, 570, 607, 567, 515, 561, 573, 549, 570, 548, 532, 497, 622, 602, 645, 631, 536, 542, 451, 464, 559, 531, 539, 568, 539, 540, 515, 574, 616, 596, 579, 597, 555, 515, 542, 525, 495, 524, 495, 514, 532, 556, 618, 543, 533, 621, 604, 482, 517, 532, 531, 488, 404, 452, 540, 507, 487, 452, 512, 573, 534, 465, 487, 504, 497, 533, 586, 643, 540, 486, 484, 536, 578, 472, 618, 622, 510, 483, 511, 549, 515, 549, 537, 534, 595, 636, 513, 453, 512, 495, 554, 517, 500, 497, 466, 454, 481, 535, 538, 495, 503, 508, 459, 514, 525, 580, 542, 508, 468, 512, 580, 569, 593, 596, 616, 535, 516, 519, 539, 522, 540, 521, 568, 514, 564, 542, 510, 520, 521, 469, 481, 567, 582, 538, 507, 576, 545, 551, 500, 611, 676, 601, 524, 589, 577, 639, 667, 604, 683, 636, 587, 592, 570, 556, 586, 481, 588, 579, 525, 567, 599, 559, 542, 560, 592, 539, 480, 579, 664, 601, 580, 543, 554, 652, 603, 550, 584, 556, 538, 433, 542, 577, 487, 510, 534, 577, 529, 506, 487, 545, 560, 526, 572, 571, 612, 584, 584, 605, 547, 562, 617, 607, 634, 664, 772, 720, 583, 638, 649, 710, 866, 941, 843, 737, 788, 1346, 1240, 1920, 2839, 3963, 2359, 1300, 2729, 5760, 5525, 3043, 6286, 9178, 5513, 1993, 5020, 11479, 11118, 1784, 7677, 10313, 6042, 1395, 5344, 11345, 10353, 676, 4654, 5524, 3113, 701, 3304, 5867, 4659, 875, 1754, 2088, 1325, 688, 1478, 1862, 1444, 755, 1847, 2207, 1335, 660, 1419, 2019, 1564, 859, 1640, 1960, 1355, 823, 1450, 1962, 1591, 921, 1576, 1554, 975, 744, 1244, 1605, 1231, 787, 1061, 1007, 789, 590, 841, 961, 760, 603, 663, 635, 537, 511, 650, 663, 583, 763, 698, 623, 636, 629, 691, 728, 670, 909, 1334, 1432, 899, 648, 1148, 1674, 1521, 1240, 2461, 2492, 1252, 758, 1879, 2961, 2384, 1122, 1956, 1838, 997, 725, 1441, 2066, 1581, 733, 947, 912, 679, 753, 841, 843, 798, 603, 661, 606, 534, 610, 652, 615, 573, 624, 596, 575, 563, 631, 659, 594, 593, 583, 487, 479, 580, 630, 641, 530, 519, 541, 576, 547, 570, 566, 615, 569, 514, 603, 661, 632, 523, 565, 545, 494, 569, 793, 948, 774, 567, 661, 690, 631, 596, 831, 1024, 871, 603, 745, 759, 607, 576, 792, 777, 690, 625, 647, 518, 571, 694, 555, 550, 593, 553, 521, 592, 574, 526, 548, 683, 796, 676, 533, 639, 680, 528, 693, 1099, 1127, 737, 605, 621, 725, 689, 721, 937, 907, 606, 669, 659, 677, 711, 565, 622, 657, 643, 612, 530, 708, 728, 533, 643, 584, 576, 508, 495, 612, 578, 508, 565, 589, 602, 590, 510, 561, 542, 617, 566, 538, 624, 605, 563, 656, 663, 659, 593, 455, 546, 576, 550, 596, 617, 661, 613, 548, 581, 567, 628, 701, 676, 683, 592, 545, 559, 573, 586, 567, 573, 696, 661, 543, 487, 536, 547, 522, 558, 630, 606, 630, 537, 581, 590, 518, 576, 562, 677, 617, 490, 562, 555, 563, 573, 535, 613, 540, 551, 564, 513, 590, 622, 546, 626, 570, 588, 643, 669, 664, 574, 622, 597, 500, 509, 601, 705, 564, 504, 643, 595, 531, 504, 599, 672, 540, 560, 597, 556, 563, 517, 573, 617, 586, 582, 695, 679, 572, 586, 601, 627, 715, 666, 563, 601, 584, 608, 600, 536, 581, 552, 583, 579, 589, 552, 564, 480, 468, 519, 596, 575, 655, 597, 514, 554, 509, 592, 594, 553, 545, 476, 580, 624, 488, 556, 705, 599, 525, 566, 572, 620, 548, 607, 730, 621, 594, 620, 643, 687, 589, 646, 601, 659, 786, 663, 528, 668, 692, 613, 608, 734, 664, 610, 625, 691, 575, 535, 695, 635, 576, 612, 627, 638, 591, 613, 620, 591, 553, 544, 580, 604, 541, 584, 503, 468, 465, 520, 569, 524, 486, 515, 531, 537, 621, 543, 514, 507, 632, 679, 487, 475, 518, 536, 578, 481, 516, 516, 455, 455, 516, 612, 528, 447, 488, 519, 554, 549, 625, 622, 554, 524, 546, 619, 693, 618, 576, 577, 675, 662, 649, 695, 662, 726, 646, 595, 677, 763, 798, 739, 607, 651, 621, 566, 587, 705, 739, 660, 514, 573, 582, 539, 508, 574, 544, 510, 720, 598, 584, 656, 576, 520, 497, 615, 689, 643, 611, 636, 684, 610, 547, 537, 580, 686, 690, 616, 666, 603, 630, 676, 466, 639, 618, 543, 586, 588, 596, 521, 601, 650, 665, 578, 596, 684, 675, 515, 581, 570, 566, 508, 548, 602, 607, 595, 530, 590, 605, 557, 633, 642, 553, 567, 471, 576, 627, 615, 621, 539, 499, 579, 539, 585, 623, 579, 627, 587, 539, 542, 563, 583, 572, 554, 585, 625, 541, 520, 565, 586, 601, 519, 520, 599, 681, 612, 532, 504, 559, 597, 542, 537, 648, 634, 561, 566, 530, 560, 587, 531, 544, 562, 529, 497, 435, 497, 582, 542, 504, 512, 478, 451, 500, 537, 490, 442, 497, 533, 447, 388, 471, 454, 375, 437, 482, 488, 486, 416, 489, 439, 429, 493, 445, 455, 593, 518, 435, 419, 500, 551, 463, 488, 504, 477, 462, 407, 368, 452, 353, 454, 387, 335, 390, 383, 375, 409, 371, 367, 522, 426, 471, 469, 418, 406, 402, 482, 490, 441, 344, 372, 403, 428, 361, 369, 423, 462, 397, 442, 430, 431, 480, 391]"
