posz,velx,vely,velz,accx,accy,accz,p1x,p1y,p1z,p2x,p2y,p2z,p3x,p3y,p3z,p4x,p4y,p4z,p5x,p5y,p5z,heatmap
0.5828624367713928,-0.1590435802936554,-0.2581588625907898,0.119029700756073,-0.161542147397995,-0.2786511778831482,0.1908603012561798,0.1277327537536621,0.7870674133300781,18.0,0.14203786849975586,0.5942344665527344,20.5,0.21742582321166992,0.6746292114257812,16.25,0.24489164352416992,0.5337238311767578,20.0,0.5448698997497559,-0.8480072021484375,15.75,"[574, 641, 708, 622, 529, 619, 708, 643, 606, 743, 622, 669, 648, 721, 739, 625, 537, 604, 521, 550, 575, 591, 570, 526, 568, 473, 478, 486, 458, 490, 430, 553, 516, 490, 567, 545, 475, 479, 550, 576, 548, 539, 544, 498, 493, 583, 563, 576, 518, 508, 467, 443, 504, 504, 541, 521, 510, 379, 479, 591, 588, 457, 450, 557, 508, 530, 460, 440, 550, 522, 452, 429, 390, 451, 476, 461, 501, 471, 426, 393, 462, 507, 497, 490, 491, 489, 516, 486, 567, 564, 463, 487, 573, 546, 488, 484, 448, 519, 492, 481, 536, 490, 487, 493, 491, 583, 592, 503, 571, 539, 509, 556, 561, 578, 555, 504, 487, 609, 537, 475, 595, 628, 506, 562, 662, 653, 577, 558, 653, 569, 513, 472, 556, 648, 544, 579, 607, 588, 521, 512, 533, 622, 563, 534, 522, 541, 548, 535, 476, 544, 537, 496, 609, 613, 514, 527, 535, 573, 542, 566, 543, 596, 606, 614, 569, 547, 543, 565, 504, 538, 585, 515, 522, 530, 584, 572, 577, 575, 462, 463, 543, 481, 503, 555, 652, 550, 512, 539, 543, 608, 489, 532, 596, 582, 509, 577, 621, 585, 540, 549, 628, 611, 594, 678, 622, 564, 564, 573, 560, 601, 620, 669, 680, 599, 596, 625, 497, 558, 629, 595, 603, 539, 567, 577, 533, 547, 582, 557, 497, 464, 477, 486, 629, 696, 630, 510, 490, 564, 537, 551, 565, 641, 582, 579, 517, 536, 603, 598, 527, 584, 513, 491, 524, 499, 517, 500, 408, 483, 504, 466, 388, 428, 476, 402, 556, 618, 600, 610, 559, 557, 546, 449, 522, 604, 601, 656, 669, 613, 631, 567, 455, 467, 486, 570, 547, 510, 504, 491, 491, 432, 417, 493, 442, 447, 437, 455, 438, 465, 540, 598, 593, 496, 492, 519, 558, 612, 524, 549, 607, 489, 471, 541, 582, 607, 615, 620, 645, 628, 627, 605, 656, 539, 562, 618, 626, 574, 566, 635, 711, 617, 551, 580, 669, 678, 575, 627, 603, 656, 597, 612, 567, 511, 552, 543, 522, 523, 536, 609, 542, 448, 538, 552, 598, 523, 516, 565, 620, 536, 562, 566, 596, 557, 556, 626, 696, 665, 628, 631, 638, 590, 565, 692, 701, 655, 631, 655, 635, 648, 641, 629, 621, 598, 606, 665, 597, 661, 605, 558, 504, 519, 618, 590, 528, 595, 615, 576, 544, 551, 562, 534, 528, 591, 600, 527, 587, 540, 447, 497, 496, 517, 640, 670, 547, 581, 581, 521, 668, 571, 668, 841, 727, 631, 968, 960, 756, 574, 742, 976, 842, 626, 951, 1004, 765, 658, 846, 623, 565, 638, 1065, 1114, 1256, 1181, 817, 1023, 1139, 1162, 1055, 1033, 1378, 2554, 3238, 1977, 888, 2386, 4562, 4161, 2249, 2921, 4500, 2635, 1066, 2527, 6261, 6421, 1750, 3520, 4785, 2809, 1023, 2958, 5922, 5583, 1802, 2608, 3317, 2095, 1296, 2330, 3898, 3692, 1678, 1047, 1413, 1128, 1040, 984, 1879, 2521, 957, 843, 1086, 703, 692, 684, 1296, 1552, 625, 813, 896, 645, 574, 722, 950, 920, 555, 567, 593, 588, 582, 621, 634, 577, 524, 518, 536, 497, 490, 491, 545, 564, 459, 536, 569, 547, 544, 536, 561, 521, 499, 447, 608, 594, 568, 625, 627, 641, 576, 595, 585, 531, 608, 600, 533, 518, 580, 576, 560, 586, 613, 605, 590, 574, 528, 576, 579, 545, 580, 659, 665, 593, 654, 628, 693, 723, 701, 633, 624, 591, 793, 659, 786, 927, 794, 650, 631, 730, 615, 1625, 2035, 1331, 688, 715, 982, 1049, 1747, 3786, 3757, 1903, 1093, 1215, 2014, 1600, 1889, 3740, 3589, 1821, 914, 1220, 1892, 1325, 1122, 1977, 1915, 1139, 720, 856, 1147, 857, 727, 775, 885, 755, 663, 679, 585, 665, 882, 859, 673, 592, 781, 851, 603, 613, 942, 937, 790, 864, 921, 745, 637, 809, 673, 585, 773, 950, 666, 803, 825, 585, 1145, 887, 906, 1057, 940, 1082, 857, 853, 863, 696, 817, 863, 884, 809, 627, 818, 627, 657, 729, 754, 756, 690, 675, 672, 600, 627, 525, 536, 638, 610, 541, 527, 574, 556, 471, 517, 571, 489, 457, 536, 615, 552, 566, 592, 580, 534, 519, 600, 608, 603, 631, 585, 533, 643, 648, 615, 496, 564, 541, 463, 529, 564, 543, 530, 482, 538, 544, 502, 503, 580, 553, 496, 651, 552, 540, 551, 665, 566, 497, 607, 623, 531, 511, 566, 630, 534, 492, 629, 547, 566, 501, 509, 553, 497, 570, 603, 634, 623, 594, 589, 556, 545, 564, 595, 644, 652, 684, 674, 596, 508, 572, 589, 625, 633, 639, 583, 646, 574, 474, 550, 589, 672, 638, 501, 575, 613, 508, 521, 563, 590, 650, 610, 611, 683, 596, 527, 542, 559, 697, 742, 638, 682, 736, 602, 520, 611, 657, 613, 565, 620, 652, 537, 547, 570, 610, 601, 506, 532, 666, 617, 582, 632, 534, 512, 532, 573, 669, 623, 689, 647, 531, 615, 640, 556, 646, 708, 624, 651, 568, 478, 596, 586, 569, 644, 621, 622, 714, 627, 618, 578, 570, 632, 593, 602, 720, 636, 629, 676, 587, 589, 635, 663, 681, 666, 729, 662, 591, 594, 590, 559, 608, 668, 592, 532, 572, 590, 560, 515, 494, 533, 546, 516, 531, 547, 502, 507, 536, 559, 601, 570, 536, 559, 540, 505, 594, 642, 622, 522, 566, 605, 593, 528, 640, 700, 586, 536, 533, 555, 545, 573, 601, 624, 537, 612, 717, 638, 586, 635, 675, 541, 509, 647, 673, 609, 600, 566, 637, 539, 434, 624, 577, 561, 520, 527, 650, 562, 428, 586, 594, 551, 523, 693, 898, 730, 504, 549, 765, 723, 482, 697, 776, 593, 466, 544, 739, 664, 587, 571, 561, 518, 493, 584, 600, 573, 524, 446, 518, 520, 444, 535, 519, 532, 468, 420, 481, 498, 430, 437, 532, 529, 473, 486, 477, 433, 410, 472, 520, 484, 455, 445, 474, 433, 408, 423, 458, 488, 354, 467, 491, 415, 394, 433, 489, 453, 426, 488, 484, 442, 444, 422, 465, 462, 409, 448, 393, 397, 465, 452, 380, 354, 429, 415, 387, 437, 437, 415, 374, 346, 347, 382, 426, 445, 390, 364, 452, 439, 349, 358, 458, 490, 419, 318, 473, 496]"
0.6823409199714661,-0.1586976945400238,-0.4397923946380615,0.33660316467285156,-0.18952611088752747,-0.5516295433044434,0.4098033905029297,-1.289643406867981,1.4562606811523438,17.25,-0.5452052354812622,1.3908863067626953,23.25,-0.39085304737091064,1.2345314025878906,18.75,-0.08829987049102783,0.9594440460205078,30.0,0.19780242443084717,0.8234024047851562,20.0,"[662, 516, 610, 711, 562, 710, 612, 510, 632, 596, 567, 673, 701, 740, 678, 605, 583, 555, 497, 548, 593, 600, 512, 511, 539, 480, 448, 444, 428, 442, 535, 525, 480, 478, 499, 403, 405, 533, 553, 537, 509, 567, 588, 518, 505, 525, 551, 497, 474, 512, 502, 510, 534, 516, 532, 495, 558, 552, 504, 515, 529, 422, 460, 550, 623, 618, 564, 560, 615, 603, 524, 577, 640, 588, 531, 529, 557, 624, 541, 543, 626, 537, 540, 563, 594, 605, 520, 561, 564, 530, 467, 464, 524, 531, 449, 516, 482, 546, 506, 504, 581, 519, 528, 528, 535, 576, 514, 513, 554, 514, 540, 561, 503, 541, 512, 559, 568, 470, 487, 539, 538, 540, 589, 609, 508, 534, 545, 526, 578, 546, 507, 538, 521, 456, 515, 586, 610, 577, 569, 578, 561, 626, 584, 599, 590, 513, 470, 557, 594, 625, 448, 463, 527, 495, 530, 550, 568, 604, 489, 464, 496, 444, 503, 477, 466, 535, 536, 569, 635, 480, 471, 549, 609, 496, 464, 587, 632, 532, 437, 535, 653, 597, 506, 576, 550, 667, 636, 492, 519, 499, 501, 505, 516, 554, 553, 559, 522, 415, 485, 544, 560, 486, 567, 671, 561, 491, 545, 585, 584, 547, 484, 476, 530, 503, 518, 604, 657, 505, 417, 480, 605, 592, 502, 638, 627, 601, 537, 520, 508, 546, 490, 533, 685, 613, 568, 580, 599, 620, 547, 601, 590, 503, 507, 561, 536, 496, 510, 598, 605, 580, 593, 542, 552, 664, 594, 558, 533, 545, 594, 511, 613, 658, 549, 518, 601, 467, 446, 533, 585, 536, 520, 591, 571, 468, 485, 530, 443, 478, 489, 520, 582, 549, 570, 629, 568, 481, 551, 589, 598, 632, 578, 526, 527, 469, 549, 609, 551, 552, 602, 558, 563, 566, 562, 633, 482, 503, 520, 467, 474, 534, 541, 557, 493, 554, 568, 510, 527, 577, 554, 555, 476, 564, 591, 564, 569, 551, 548, 529, 611, 616, 526, 536, 645, 636, 543, 529, 621, 537, 503, 558, 670, 626, 532, 592, 532, 503, 507, 536, 619, 640, 594, 580, 530, 445, 533, 480, 586, 623, 583, 635, 662, 531, 607, 634, 566, 637, 588, 594, 712, 606, 596, 632, 624, 598, 568, 655, 616, 588, 622, 590, 632, 538, 530, 594, 547, 591, 575, 555, 544, 559, 557, 518, 537, 543, 629, 692, 572, 497, 576, 510, 528, 586, 690, 698, 620, 554, 597, 584, 891, 754, 1009, 1102, 842, 935, 1633, 1607, 1965, 1038, 1942, 2517, 1735, 1435, 4017, 4237, 1848, 1489, 2217, 2515, 1628, 1924, 4816, 4748, 3041, 3447, 4526, 3140, 2106, 3618, 8142, 7870, 7842, 6439, 10212, 6657, 4880, 6492, 17256, 18191, 7649, 4789, 8474, 5048, 4216, 5247, 15259, 16715, 5453, 3020, 6364, 3821, 2275, 3023, 9869, 11495, 3788, 2914, 5621, 3672, 1644, 2701, 7402, 8403, 2799, 3746, 5637, 3232, 1542, 3648, 8588, 8459, 2073, 3280, 4807, 2921, 1439, 2832, 6939, 6816, 844, 1234, 1552, 1090, 765, 1123, 2342, 2261, 676, 621, 644, 669, 642, 629, 763, 777, 651, 603, 506, 544, 560, 643, 589, 509, 481, 541, 481, 505, 566, 554, 518, 455, 525, 527, 485, 483, 551, 649, 589, 434, 525, 566, 602, 530, 467, 615, 710, 546, 570, 584, 585, 580, 501, 530, 662, 565, 579, 528, 440, 469, 550, 588, 540, 523, 525, 536, 482, 548, 611, 596, 609, 613, 672, 619, 617, 677, 709, 651, 779, 754, 613, 500, 635, 880, 687, 444, 746, 766, 901, 1576, 2020, 1536, 727, 662, 892, 1024, 1447, 3112, 3315, 1981, 942, 957, 1521, 1546, 1473, 2647, 2369, 1102, 976, 1165, 1466, 1160, 1294, 1390, 1028, 931, 881, 1164, 1269, 1007, 912, 779, 689, 804, 729, 837, 872, 709, 655, 728, 831, 736, 786, 757, 667, 787, 1528, 1323, 1594, 1289, 1088, 1532, 1152, 1375, 2216, 1882, 2308, 2440, 1738, 2125, 1416, 1901, 1671, 1388, 1954, 2117, 1497, 1547, 875, 1365, 832, 749, 992, 988, 847, 895, 608, 684, 598, 495, 598, 694, 639, 624, 766, 716, 649, 563, 645, 609, 656, 620, 656, 696, 631, 558, 487, 551, 588, 569, 537, 595, 591, 594, 647, 632, 573, 646, 584, 535, 646, 703, 722, 628, 604, 670, 575, 554, 655, 660, 608, 646, 658, 551, 597, 670, 788, 673, 544, 621, 671, 811, 754, 694, 866, 569, 922, 845, 531, 647, 822, 1000, 787, 580, 1055, 964, 650, 697, 860, 1050, 605, 652, 751, 677, 556, 687, 689, 654, 540, 558, 532, 564, 508, 507, 535, 483, 531, 535, 490, 602, 645, 633, 624, 531, 568, 546, 560, 571, 567, 554, 563, 586, 493, 530, 536, 503, 416, 505, 559, 486, 537, 621, 537, 459, 505, 525, 470, 451, 581, 605, 539, 542, 600, 549, 502, 560, 520, 536, 410, 491, 536, 508, 461, 465, 530, 596, 558, 514, 525, 537, 499, 518, 580, 561, 518, 416, 407, 570, 519, 507, 591, 560, 471, 495, 416, 504, 526, 509, 596, 544, 508, 542, 570, 566, 636, 634, 536, 545, 491, 523, 607, 586, 604, 588, 571, 601, 581, 610, 621, 591, 601, 598, 612, 638, 577, 590, 551, 601, 537, 544, 615, 529, 587, 600, 546, 588, 566, 588, 613, 585, 567, 610, 647, 614, 593, 573, 553, 523, 521, 587, 577, 546, 523, 521, 521, 549, 594, 558, 614, 625, 584, 593, 502, 541, 647, 638, 619, 653, 583, 586, 567, 563, 575, 654, 637, 693, 675, 563, 627, 557, 564, 637, 592, 610, 654, 603, 515, 595, 578, 465, 554, 558, 589, 586, 480, 529, 571, 533, 610, 610, 655, 645, 502, 548, 626, 601, 598, 585, 608, 609, 577, 621, 747, 739, 650, 679, 736, 776, 600, 658, 726, 698, 634, 567, 663, 710, 418, 589, 607, 507, 517, 519, 505, 458, 492, 532, 556, 493, 516, 477, 491, 528, 508, 452, 448, 380, 512, 463, 455, 551, 497, 527, 421, 428, 478, 523, 547, 554, 432, 467, 441, 501, 456, 439, 562, 546, 484, 469, 443, 460, 470, 492, 476, 459, 394, 399, 389, 358, 404, 462, 413, 397, 366, 383, 491, 411, 352, 451, 405, 437, 384, 392, 363, 360, 430, 431, 397, 394, 464, 443, 461, 442, 420, 444, 448, 452]"
0.6720579266548157,-0.12038066238164902,-0.5461003184318542,0.22759737074375153,-0.16119450330734253,-0.6795819997787476,0.18262308835983276,-0.7191458940505981,1.3279438018798828,25.5,-0.6158629655838013,1.3215065002441406,19.5,-0.2299109697341919,0.9820461273193359,24.0,-0.026635289192199707,0.8191108703613281,27.25,0.11927688121795654,0.91552734375,26.0,"[552, 651, 550, 642, 837, 642, 551, 654, 630, 577, 491, 580, 753, 700, 538, 606, 520, 462, 527, 582, 606, 528, 518, 573, 606, 474, 607, 652, 594, 459, 549, 713, 563, 489, 519, 579, 581, 541, 585, 614, 492, 537, 486, 464, 502, 490, 541, 558, 613, 587, 557, 587, 606, 505, 509, 576, 571, 592, 588, 535, 447, 448, 506, 538, 517, 542, 540, 503, 495, 493, 555, 527, 480, 512, 529, 494, 453, 557, 636, 589, 532, 500, 511, 517, 540, 545, 566, 633, 607, 519, 529, 557, 544, 482, 505, 614, 567, 602, 516, 546, 550, 482, 478, 525, 474, 547, 549, 470, 455, 490, 503, 519, 573, 508, 510, 513, 523, 518, 380, 498, 581, 546, 504, 558, 627, 540, 434, 487, 513, 515, 508, 504, 514, 494, 462, 466, 532, 527, 512, 563, 591, 525, 529, 548, 439, 504, 525, 562, 548, 458, 475, 494, 528, 558, 529, 608, 589, 487, 465, 534, 535, 554, 535, 541, 580, 560, 547, 565, 522, 557, 509, 577, 604, 563, 586, 569, 539, 551, 457, 478, 535, 559, 496, 502, 596, 537, 527, 482, 566, 674, 545, 509, 507, 471, 574, 544, 498, 597, 569, 549, 473, 602, 568, 496, 511, 560, 563, 507, 478, 541, 534, 527, 547, 566, 570, 497, 541, 560, 609, 671, 576, 553, 598, 544, 566, 510, 505, 584, 615, 582, 524, 571, 531, 516, 545, 556, 648, 603, 432, 533, 426, 483, 524, 462, 491, 514, 424, 481, 544, 504, 517, 542, 499, 410, 495, 541, 489, 585, 548, 468, 504, 501, 534, 504, 551, 626, 615, 495, 569, 580, 532, 547, 592, 539, 497, 517, 562, 619, 590, 608, 544, 550, 513, 557, 488, 561, 547, 464, 491, 565, 609, 641, 485, 515, 600, 463, 574, 543, 644, 692, 508, 590, 625, 514, 508, 507, 561, 636, 546, 555, 641, 596, 598, 616, 598, 719, 640, 578, 696, 716, 547, 588, 692, 697, 625, 590, 666, 597, 547, 628, 668, 654, 632, 597, 569, 561, 566, 581, 602, 574, 543, 606, 605, 559, 585, 589, 543, 596, 565, 516, 542, 564, 548, 485, 534, 585, 552, 556, 644, 636, 504, 561, 528, 530, 588, 600, 585, 572, 615, 695, 691, 557, 647, 623, 670, 649, 690, 579, 554, 565, 592, 647, 576, 634, 603, 541, 546, 563, 507, 546, 573, 614, 500, 542, 533, 586, 569, 504, 564, 591, 577, 819, 877, 836, 638, 820, 1275, 1070, 2325, 1711, 2814, 3337, 2203, 1961, 5562, 5701, 5284, 2258, 4946, 6379, 4581, 2969, 10363, 11356, 4964, 1320, 4253, 6101, 4509, 1822, 8065, 9415, 7263, 4206, 8647, 8200, 5533, 4433, 12293, 13902, 11529, 7222, 14457, 12106, 7958, 7642, 21522, 23802, 8819, 5936, 12498, 9436, 6014, 5496, 17621, 19700, 3603, 7927, 11869, 8038, 3209, 6096, 14417, 13753, 1798, 5092, 6005, 3703, 1436, 4367, 8440, 7047, 1396, 708, 1343, 1462, 973, 742, 926, 1460, 867, 1568, 2177, 1493, 692, 1183, 2397, 2330, 616, 1188, 1481, 1022, 632, 850, 1617, 1533, 566, 834, 972, 756, 577, 796, 1054, 936, 568, 702, 715, 620, 631, 734, 788, 726, 645, 665, 705, 679, 586, 635, 755, 753, 669, 613, 583, 633, 625, 653, 761, 742, 624, 559, 565, 655, 596, 540, 700, 707, 538, 526, 647, 741, 582, 499, 611, 599, 507, 501, 506, 578, 588, 528, 524, 547, 635, 675, 618, 561, 648, 715, 589, 519, 762, 582, 485, 589, 805, 757, 577, 732, 922, 760, 703, 873, 978, 786, 681, 882, 1532, 2335, 2434, 1913, 1358, 1189, 1386, 1376, 2205, 4738, 5601, 3595, 1673, 1620, 3016, 2672, 2148, 4761, 5338, 3248, 1389, 1627, 2921, 2363, 1134, 2034, 2506, 1807, 1023, 1052, 1749, 1451, 971, 1413, 1444, 1259, 884, 1061, 1473, 1201, 1338, 1084, 1367, 1583, 906, 1013, 1151, 1068, 1610, 951, 1549, 1901, 1056, 1473, 1361, 1107, 1940, 1314, 1691, 2334, 1795, 1940, 1414, 1219, 1396, 901, 1719, 2094, 1634, 1276, 933, 1299, 1056, 702, 1026, 1311, 1021, 837, 667, 837, 949, 769, 826, 961, 783, 880, 785, 771, 619, 740, 669, 595, 716, 765, 782, 598, 634, 738, 599, 553, 654, 696, 654, 494, 554, 658, 671, 670, 653, 656, 780, 618, 637, 642, 647, 665, 590, 673, 720, 620, 618, 743, 717, 669, 581, 664, 705, 586, 618, 685, 511, 512, 584, 582, 605, 503, 616, 635, 545, 529, 578, 596, 694, 669, 643, 736, 621, 536, 489, 605, 709, 634, 632, 737, 717, 535, 597, 757, 710, 621, 637, 532, 531, 472, 544, 594, 561, 639, 632, 626, 559, 622, 589, 527, 593, 587, 569, 574, 597, 614, 541, 621, 648, 589, 588, 638, 597, 552, 612, 640, 579, 531, 536, 648, 621, 622, 612, 651, 643, 544, 596, 582, 551, 571, 539, 535, 658, 621, 602, 592, 508, 518, 494, 544, 612, 548, 644, 611, 622, 591, 633, 697, 672, 643, 514, 564, 533, 545, 623, 608, 540, 548, 552, 550, 542, 584, 611, 599, 613, 608, 546, 488, 556, 568, 559, 498, 510, 634, 514, 495, 575, 589, 532, 550, 543, 548, 607, 581, 564, 599, 610, 618, 560, 585, 527, 535, 611, 629, 591, 660, 652, 564, 673, 687, 676, 696, 708, 708, 667, 717, 697, 584, 665, 685, 604, 607, 671, 723, 617, 555, 687, 642, 558, 592, 654, 687, 622, 590, 540, 555, 620, 522, 568, 617, 553, 570, 573, 602, 727, 583, 547, 593, 597, 626, 647, 587, 634, 688, 651, 572, 539, 551, 592, 522, 452, 601, 653, 630, 640, 761, 849, 668, 588, 697, 780, 787, 676, 971, 1017, 669, 609, 843, 1029, 916, 773, 1173, 1278, 850, 647, 869, 1422, 1277, 689, 1142, 1350, 876, 582, 877, 1536, 1400, 648, 956, 1040, 742, 560, 765, 1177, 1054, 537, 636, 687, 558, 562, 568, 739, 761, 534, 743, 734, 544, 530, 643, 733, 617, 505, 550, 533, 466, 427, 470, 528, 478, 507, 536, 498, 467, 346, 412, 448, 481, 495, 526, 583, 572, 452, 495, 543, 509, 398, 423, 576, 646, 546, 463, 499, 501, 451, 438, 488, 540, 471, 450, 478, 465, 483, 487, 548, 593, 445, 470, 508, 486, 471, 474, 458, 428, 377, 449, 470, 421, 398, 425, 402, 376, 414, 412, 449, 393]"
0.6853001713752747,-0.22192522883415222,-0.5030698776245117,0.20108462870121002,-0.32531899213790894,-0.5398302674293518,0.10710178315639496,-1.2267131805419922,1.4774322509765625,19.0,-0.5665321350097656,1.2096405029296875,16.25,-0.09045791625976562,0.8769035339355469,20.5,0.1969318389892578,0.7853507995605469,24.5,0.3830413818359375,0.4486083984375,22.5,"[384, 532, 657, 597, 539, 597, 658, 530, 494, 528, 509, 614, 715, 634, 590, 576, 473, 489, 445, 477, 566, 536, 492, 430, 424, 459, 470, 566, 520, 454, 463, 448, 431, 423, 422, 499, 515, 454, 401, 437, 607, 509, 421, 499, 567, 508, 424, 506, 554, 538, 538, 557, 516, 478, 489, 519, 533, 637, 640, 596, 574, 605, 554, 536, 544, 557, 527, 543, 480, 563, 543, 478, 543, 513, 535, 524, 474, 594, 568, 530, 538, 494, 478, 471, 449, 559, 527, 484, 570, 585, 530, 488, 518, 591, 594, 455, 555, 558, 595, 548, 524, 609, 612, 553, 522, 438, 576, 593, 491, 474, 475, 509, 622, 512, 560, 627, 528, 480, 491, 557, 557, 498, 541, 659, 584, 526, 514, 539, 558, 543, 505, 574, 618, 550, 519, 563, 564, 510, 478, 518, 542, 543, 603, 636, 536, 479, 492, 515, 543, 508, 542, 588, 500, 556, 542, 595, 558, 493, 520, 484, 575, 560, 537, 588, 568, 535, 500, 493, 553, 515, 546, 600, 604, 587, 580, 538, 553, 447, 514, 550, 540, 519, 523, 604, 499, 460, 597, 602, 535, 494, 480, 599, 539, 497, 566, 541, 446, 472, 540, 581, 672, 590, 457, 536, 594, 518, 554, 633, 683, 654, 541, 551, 573, 551, 601, 640, 681, 692, 610, 577, 536, 579, 635, 670, 607, 616, 603, 529, 498, 578, 645, 641, 548, 570, 609, 581, 548, 501, 658, 716, 576, 607, 636, 579, 512, 500, 690, 742, 446, 561, 585, 510, 458, 478, 576, 510, 440, 510, 467, 494, 516, 533, 560, 477, 590, 486, 473, 552, 610, 596, 550, 572, 586, 505, 527, 572, 552, 551, 576, 637, 574, 543, 553, 563, 587, 509, 472, 558, 532, 530, 587, 511, 526, 559, 421, 468, 452, 584, 620, 510, 581, 642, 532, 502, 530, 607, 622, 498, 588, 610, 580, 588, 533, 519, 537, 521, 466, 491, 536, 570, 558, 516, 477, 520, 490, 486, 490, 588, 549, 498, 569, 625, 490, 442, 568, 619, 488, 542, 587, 585, 554, 537, 558, 568, 557, 554, 594, 603, 571, 572, 555, 543, 567, 575, 553, 523, 558, 593, 520, 565, 541, 550, 493, 494, 608, 624, 553, 572, 648, 689, 586, 555, 659, 665, 576, 553, 623, 612, 623, 648, 618, 655, 648, 576, 604, 604, 586, 596, 670, 641, 502, 576, 554, 620, 714, 679, 697, 737, 675, 583, 693, 670, 920, 981, 709, 730, 1114, 1018, 1599, 744, 1550, 1832, 1320, 884, 2468, 2781, 2143, 1125, 2228, 2494, 1871, 1168, 3158, 3684, 3038, 2086, 3352, 3100, 2269, 1968, 4439, 5096, 3447, 2594, 3977, 3641, 2489, 2446, 5244, 6057, 1849, 5106, 6025, 3316, 1539, 4716, 8590, 7320, 3974, 6036, 8302, 5222, 2569, 6114, 12372, 11403, 4460, 4746, 7045, 5342, 2866, 5289, 11268, 11024, 2935, 2550, 4087, 3438, 1886, 2871, 6324, 6421, 1648, 1157, 2078, 1794, 1105, 1283, 2694, 2977, 1049, 902, 1288, 1093, 883, 745, 1555, 1798, 805, 874, 966, 753, 649, 714, 955, 1105, 761, 836, 1021, 809, 531, 699, 856, 969, 602, 680, 833, 637, 456, 670, 773, 702, 626, 669, 736, 664, 483, 635, 696, 626, 675, 759, 855, 672, 610, 750, 774, 641, 536, 644, 653, 556, 515, 565, 598, 629, 613, 607, 590, 601, 613, 584, 544, 593, 635, 574, 555, 645, 621, 580, 548, 545, 591, 581, 580, 559, 538, 584, 594, 654, 754, 938, 872, 699, 719, 749, 813, 728, 1032, 1760, 1699, 968, 910, 936, 830, 647, 1860, 3275, 2901, 1376, 1070, 1281, 1408, 927, 2498, 4018, 3237, 1439, 1075, 1390, 1825, 1216, 1793, 2735, 2257, 1251, 921, 1000, 1390, 1069, 1339, 1737, 1670, 1386, 1219, 925, 999, 1185, 1384, 1915, 2167, 1863, 1260, 1088, 1336, 1115, 1452, 1860, 3011, 2673, 1071, 1408, 1703, 1509, 2205, 1553, 2892, 3108, 1551, 2013, 1766, 1800, 2094, 1230, 2035, 2395, 1384, 1772, 1355, 1535, 1178, 798, 983, 1173, 832, 1006, 831, 997, 709, 610, 720, 722, 677, 711, 641, 717, 712, 650, 616, 675, 655, 659, 703, 708, 674, 655, 614, 590, 688, 625, 536, 652, 508, 581, 633, 613, 568, 565, 526, 511, 687, 730, 595, 656, 771, 708, 590, 579, 735, 638, 643, 890, 965, 699, 589, 744, 671, 648, 761, 887, 831, 688, 621, 756, 684, 651, 694, 739, 670, 649, 672, 699, 635, 623, 745, 765, 606, 616, 760, 775, 598, 646, 716, 606, 536, 673, 790, 735, 673, 611, 602, 593, 633, 630, 718, 684, 671, 588, 541, 584, 587, 508, 587, 745, 773, 675, 653, 660, 631, 594, 597, 760, 653, 667, 670, 735, 716, 731, 675, 668, 630, 675, 661, 710, 716, 771, 725, 666, 556, 575, 526, 576, 624, 605, 536, 538, 680, 585, 512, 621, 671, 639, 581, 636, 587, 581, 562, 571, 582, 491, 531, 609, 527, 556, 556, 541, 553, 559, 585, 535, 572, 550, 567, 615, 615, 589, 628, 647, 589, 561, 517, 599, 632, 548, 577, 632, 512, 519, 531, 629, 628, 590, 539, 505, 613, 494, 514, 686, 734, 711, 591, 612, 718, 653, 545, 651, 695, 622, 592, 652, 760, 686, 597, 618, 635, 623, 691, 758, 595, 587, 609, 561, 500, 531, 653, 683, 659, 555, 700, 690, 618, 709, 737, 729, 553, 574, 598, 606, 608, 722, 758, 601, 612, 560, 575, 650, 640, 629, 655, 657, 610, 535, 601, 608, 636, 628, 670, 704, 753, 620, 611, 604, 621, 693, 602, 680, 644, 701, 725, 642, 717, 652, 659, 684, 645, 795, 809, 687, 577, 744, 825, 703, 761, 953, 927, 676, 605, 875, 1054, 853, 735, 1131, 1193, 719, 648, 978, 1460, 1250, 478, 990, 1157, 652, 468, 759, 1257, 1127, 565, 681, 699, 601, 554, 617, 868, 820, 463, 491, 440, 490, 504, 448, 489, 476, 523, 465, 536, 566, 535, 392, 480, 573, 485, 437, 514, 586, 430, 454, 562, 515, 586, 483, 571, 547, 397, 481, 565, 567, 641, 510, 502, 550, 487, 386, 408, 598, 517, 510, 510, 549, 486, 448, 502, 524, 362, 479, 481, 483, 397, 381, 485, 426, 508, 500, 502, 494, 437, 426, 457, 493, 501, 462, 519, 505, 429, 480, 426, 455, 359, 397, 449, 384, 373, 413, 379, 413]"
0.7372302412986755,-0.2734406292438507,-0.6504164934158325,0.2702012360095978,-0.406604528427124,-0.7284289598464966,0.14476726949214935,-0.441280722618103,1.3242244720458984,24.75,-0.3939307928085327,1.0561466217041016,17.25,-0.1096881628036499,1.0319709777832031,-28.75,-0.02514493465423584,0.9720325469970703,-29.0,0.3171764612197876,0.6490230560302734,18.25,"[464, 550, 587, 669, 797, 668, 589, 548, 431, 496, 521, 629, 662, 636, 577, 492, 481, 523, 512, 557, 559, 583, 556, 530, 515, 530, 563, 588, 544, 464, 452, 513, 574, 542, 513, 531, 514, 482, 391, 472, 474, 469, 467, 443, 493, 482, 451, 464, 555, 543, 546, 471, 496, 459, 496, 503, 537, 639, 621, 492, 598, 599, 600, 556, 568, 627, 581, 536, 521, 511, 586, 557, 541, 599, 587, 559, 509, 550, 584, 586, 682, 620, 499, 586, 575, 559, 473, 585, 579, 591, 583, 528, 583, 582, 546, 595, 541, 467, 548, 513, 510, 484, 532, 604, 515, 479, 516, 571, 526, 485, 569, 581, 509, 438, 460, 548, 524, 506, 518, 590, 414, 383, 443, 538, 520, 428, 498, 514, 526, 491, 470, 523, 501, 557, 581, 557, 497, 487, 534, 585, 598, 585, 560, 504, 477, 478, 602, 559, 541, 559, 530, 556, 520, 544, 625, 578, 493, 670, 561, 483, 565, 472, 547, 594, 475, 479, 547, 556, 547, 533, 661, 711, 533, 469, 609, 671, 574, 522, 642, 622, 492, 484, 614, 654, 415, 472, 544, 525, 473, 487, 520, 507, 504, 461, 526, 597, 571, 527, 495, 512, 528, 544, 652, 662, 561, 533, 534, 505, 533, 571, 530, 519, 618, 584, 548, 521, 500, 566, 546, 467, 621, 678, 575, 529, 428, 463, 487, 422, 468, 580, 527, 488, 577, 573, 534, 525, 545, 610, 596, 591, 534, 533, 584, 569, 545, 553, 590, 575, 579, 541, 526, 555, 604, 544, 570, 596, 533, 622, 520, 483, 568, 468, 426, 457, 596, 581, 574, 575, 586, 583, 527, 509, 592, 490, 496, 557, 582, 579, 562, 597, 611, 617, 475, 533, 555, 633, 572, 437, 603, 573, 451, 550, 574, 594, 567, 473, 435, 480, 498, 544, 571, 547, 502, 501, 528, 507, 558, 598, 572, 558, 505, 506, 567, 494, 516, 614, 618, 537, 544, 552, 545, 560, 614, 611, 520, 514, 513, 551, 591, 539, 575, 632, 621, 590, 598, 575, 580, 533, 571, 661, 548, 477, 573, 641, 567, 540, 515, 564, 563, 527, 497, 571, 540, 568, 589, 584, 545, 608, 601, 541, 577, 582, 650, 620, 594, 613, 652, 595, 556, 583, 657, 552, 505, 607, 638, 594, 501, 565, 624, 546, 479, 592, 606, 535, 640, 579, 701, 712, 675, 720, 860, 843, 1397, 944, 1394, 1602, 1333, 1200, 2262, 2449, 2631, 1071, 2040, 2548, 2211, 1232, 3378, 4098, 4578, 4610, 6205, 4887, 3363, 5185, 10050, 9721, 12664, 12406, 19193, 13086, 8549, 13145, 31820, 31981, 14504, 12916, 21541, 14870, 9653, 13036, 34279, 35586, 4877, 4663, 7143, 5630, 3315, 4572, 11008, 11203, 4489, 3525, 6756, 4446, 2392, 3123, 8842, 9995, 4767, 5332, 9507, 6508, 2751, 4050, 11323, 12288, 2053, 3762, 5476, 3342, 1170, 2896, 6754, 6626, 1183, 1424, 1441, 1077, 842, 1234, 1867, 1751, 1456, 1421, 1914, 1580, 966, 1126, 2185, 2460, 1319, 1918, 2321, 1550, 856, 1414, 2679, 2624, 913, 1503, 1546, 932, 784, 1253, 1882, 1576, 632, 780, 781, 703, 669, 852, 993, 824, 736, 734, 724, 842, 747, 619, 872, 795, 661, 666, 692, 849, 690, 599, 672, 606, 733, 666, 546, 643, 543, 569, 617, 599, 581, 697, 642, 544, 521, 538, 640, 531, 619, 713, 687, 696, 582, 641, 856, 801, 751, 761, 794, 897, 771, 821, 914, 825, 780, 910, 1012, 1092, 821, 956, 1134, 824, 1394, 2509, 2307, 1391, 1124, 873, 1315, 955, 2023, 4490, 4468, 2058, 1419, 1617, 1786, 1451, 2303, 5652, 5953, 2889, 1704, 2631, 3286, 2317, 4055, 8293, 7324, 2747, 2066, 3680, 5138, 2734, 3386, 5891, 4826, 2565, 1906, 2871, 3710, 1906, 1815, 2851, 2537, 1577, 1210, 1505, 1679, 1086, 1625, 1737, 1918, 1838, 1348, 1068, 1266, 1347, 1907, 1441, 2368, 2682, 1593, 1371, 1136, 1730, 1502, 1079, 2005, 2012, 1007, 1366, 1175, 1369, 1095, 921, 1445, 1368, 871, 1122, 1056, 949, 997, 834, 1196, 1221, 982, 941, 979, 1015, 973, 789, 1046, 1121, 957, 838, 863, 1018, 996, 954, 1188, 1137, 912, 880, 792, 928, 880, 954, 1356, 1211, 883, 888, 876, 1040, 796, 907, 1126, 946, 752, 869, 819, 797, 741, 804, 905, 899, 781, 864, 907, 813, 760, 793, 837, 711, 719, 746, 793, 754, 717, 771, 841, 803, 642, 570, 643, 789, 554, 567, 669, 660, 561, 546, 631, 661, 665, 688, 783, 683, 567, 650, 751, 732, 968, 856, 799, 768, 767, 766, 878, 1036, 1075, 972, 887, 742, 799, 909, 895, 1042, 817, 718, 712, 722, 694, 678, 718, 839, 703, 710, 739, 650, 677, 632, 663, 697, 594, 630, 666, 629, 626, 574, 647, 714, 665, 659, 542, 630, 694, 642, 564, 604, 616, 524, 533, 667, 678, 540, 564, 667, 721, 593, 585, 722, 678, 597, 524, 692, 635, 528, 631, 719, 640, 613, 570, 600, 574, 617, 656, 719, 609, 570, 568, 584, 648, 671, 687, 790, 737, 619, 644, 623, 707, 658, 693, 762, 634, 646, 758, 692, 629, 720, 763, 774, 662, 589, 597, 668, 638, 614, 730, 838, 763, 655, 714, 719, 664, 599, 691, 781, 772, 588, 674, 740, 624, 581, 644, 721, 796, 674, 644, 681, 518, 504, 623, 652, 639, 636, 586, 584, 555, 568, 665, 688, 627, 629, 667, 639, 617, 597, 501, 554, 634, 611, 647, 656, 675, 624, 522, 603, 723, 758, 697, 732, 695, 697, 706, 657, 608, 722, 776, 769, 611, 676, 693, 604, 543, 575, 775, 760, 774, 676, 753, 758, 662, 583, 677, 852, 953, 729, 995, 883, 623, 702, 930, 1125, 744, 888, 940, 721, 750, 772, 1135, 1123, 588, 839, 822, 654, 651, 720, 1132, 1063, 540, 875, 841, 692, 652, 864, 1313, 1044, 549, 704, 657, 700, 608, 827, 1209, 989, 639, 645, 608, 695, 565, 658, 1002, 893, 672, 643, 670, 585, 580, 644, 661, 663, 566, 630, 576, 515, 550, 670, 679, 525, 493, 609, 615, 535, 541, 598, 889, 801, 509, 560, 605, 559, 489, 487, 731, 722, 427, 509, 575, 539, 447, 480, 619, 566, 488, 597, 610, 543, 493, 474, 528, 551, 530, 592, 553, 446, 466, 510, 479, 457, 634, 602, 440, 465, 560, 577, 508, 477, 520, 443, 449, 462, 447, 497, 434, 453]"
0.7548721432685852,-0.42404571175575256,-0.6703301668167114,0.2337483912706375,-0.6290290951728821,-0.6877297163009644,0.03838455677032471,-0.2703958749771118,1.1180877685546875,19.0,-0.21246016025543213,1.1521339416503906,24.5,-0.19944250583648682,0.9837627410888672,19.25,-0.04809439182281494,0.9397029876708984,30.75,-0.018768906593322754,0.9349822998046875,-31.75,"[465, 617, 716, 752, 780, 752, 721, 622, 438, 517, 580, 675, 657, 634, 669, 582, 475, 509, 597, 606, 544, 590, 584, 552, 607, 474, 575, 596, 610, 556, 587, 642, 506, 387, 497, 487, 466, 502, 524, 555, 489, 539, 465, 465, 528, 509, 560, 492, 456, 476, 536, 489, 464, 502, 548, 490, 464, 462, 470, 511, 568, 554, 551, 525, 579, 527, 478, 599, 643, 468, 460, 541, 649, 544, 573, 641, 602, 469, 441, 591, 612, 519, 463, 560, 624, 540, 407, 605, 478, 456, 484, 514, 505, 491, 535, 525, 425, 510, 587, 506, 426, 500, 591, 498, 587, 654, 629, 599, 506, 501, 705, 649, 519, 594, 704, 705, 601, 658, 725, 592, 669, 623, 625, 686, 674, 656, 618, 639, 566, 501, 503, 638, 700, 605, 515, 594, 518, 496, 511, 595, 652, 649, 540, 529, 589, 522, 547, 620, 603, 599, 603, 600, 533, 523, 634, 566, 552, 639, 699, 628, 572, 522, 608, 585, 634, 620, 548, 586, 634, 637, 698, 638, 661, 567, 512, 643, 558, 599, 604, 597, 572, 545, 558, 533, 541, 528, 604, 572, 517, 549, 621, 639, 522, 576, 597, 526, 512, 551, 535, 553, 602, 664, 618, 555, 568, 666, 631, 517, 622, 599, 597, 545, 553, 650, 597, 526, 618, 659, 621, 592, 568, 652, 597, 536, 605, 549, 531, 566, 540, 537, 523, 520, 642, 530, 533, 556, 529, 497, 627, 690, 601, 567, 573, 622, 528, 545, 718, 704, 529, 685, 562, 504, 474, 663, 682, 495, 395, 501, 561, 514, 497, 491, 540, 471, 546, 608, 612, 600, 599, 588, 638, 533, 589, 562, 507, 503, 613, 596, 551, 607, 672, 627, 538, 608, 657, 595, 583, 652, 456, 431, 563, 588, 533, 538, 525, 504, 537, 522, 597, 579, 466, 483, 625, 608, 516, 526, 611, 571, 522, 486, 576, 553, 663, 646, 542, 589, 655, 655, 584, 568, 610, 580, 545, 560, 578, 612, 571, 607, 643, 575, 506, 557, 585, 654, 634, 591, 490, 465, 471, 503, 513, 529, 564, 548, 535, 474, 485, 469, 450, 570, 568, 574, 633, 577, 560, 616, 566, 542, 586, 579, 668, 649, 754, 868, 624, 642, 820, 824, 1268, 1090, 1671, 1810, 1090, 1429, 2860, 2713, 2187, 1822, 2879, 3009, 1852, 2134, 5273, 5308, 2011, 2139, 3046, 2851, 1635, 2339, 5187, 4989, 3675, 4494, 5939, 4650, 2804, 4935, 9742, 9081, 10238, 9778, 14962, 11424, 7156, 10628, 24616, 24634, 13743, 10473, 17541, 14656, 9542, 11512, 29155, 30376, 9012, 6503, 10246, 8697, 6124, 6374, 16552, 17692, 3600, 3841, 4390, 3690, 2582, 3133, 6786, 7079, 2676, 1936, 3726, 3469, 1854, 1907, 4197, 4711, 2664, 2188, 4445, 3617, 1540, 1868, 4842, 5609, 1941, 1807, 3313, 2540, 1143, 1643, 3926, 4303, 1173, 1731, 2530, 1862, 881, 1415, 2489, 2547, 1442, 2369, 3296, 2214, 858, 1586, 3132, 3252, 1322, 2449, 3322, 2115, 855, 1743, 3363, 3336, 945, 1488, 1847, 1234, 589, 1107, 1850, 1791, 739, 1017, 1067, 905, 602, 862, 1211, 1067, 705, 809, 856, 813, 725, 880, 1052, 934, 645, 746, 804, 898, 779, 803, 996, 896, 568, 667, 659, 693, 753, 823, 887, 813, 641, 849, 752, 545, 706, 807, 809, 693, 691, 925, 780, 542, 561, 671, 697, 585, 729, 820, 753, 676, 661, 610, 750, 762, 953, 946, 799, 729, 716, 816, 891, 850, 908, 949, 918, 836, 818, 957, 989, 923, 1487, 2735, 2992, 1929, 1070, 1366, 1711, 1445, 3335, 6142, 6369, 3637, 1739, 2550, 3701, 2483, 4110, 6899, 6687, 3795, 1963, 3375, 4293, 2414, 2844, 4708, 4214, 2419, 1402, 2805, 2950, 1829, 2732, 4118, 3751, 2168, 1835, 2325, 2361, 2023, 2907, 3964, 3802, 2649, 1786, 2444, 2491, 2322, 1856, 2142, 2408, 2005, 1436, 1689, 1581, 1661, 1121, 1150, 1379, 1233, 1064, 1145, 982, 1012, 1334, 1975, 1903, 1088, 1276, 1504, 1244, 899, 1307, 2297, 2098, 1055, 1235, 1399, 1248, 925, 909, 1455, 1316, 770, 931, 1086, 923, 683, 896, 857, 813, 734, 886, 934, 819, 840, 853, 747, 770, 841, 826, 807, 801, 812, 829, 830, 900, 902, 685, 716, 843, 863, 705, 841, 802, 750, 738, 814, 923, 798, 816, 733, 781, 708, 801, 795, 788, 871, 826, 747, 793, 797, 694, 694, 648, 844, 779, 954, 997, 826, 637, 674, 764, 636, 664, 839, 982, 872, 659, 680, 866, 749, 770, 688, 791, 829, 802, 753, 943, 943, 857, 701, 669, 876, 878, 815, 941, 976, 761, 636, 598, 732, 857, 753, 784, 784, 772, 682, 510, 532, 729, 666, 604, 709, 659, 623, 617, 521, 673, 695, 610, 645, 582, 474, 535, 532, 564, 498, 526, 604, 600, 519, 540, 549, 537, 548, 554, 605, 625, 528, 602, 643, 504, 494, 628, 656, 642, 571, 607, 628, 584, 620, 718, 724, 655, 548, 555, 656, 675, 655, 699, 723, 708, 630, 596, 724, 716, 626, 634, 648, 605, 651, 618, 677, 666, 642, 639, 669, 669, 699, 732, 720, 612, 650, 777, 851, 610, 509, 621, 667, 636, 588, 640, 781, 602, 591, 679, 769, 721, 630, 709, 751, 779, 687, 699, 702, 678, 700, 805, 881, 747, 690, 748, 667, 678, 728, 808, 866, 810, 729, 715, 727, 724, 728, 588, 651, 723, 963, 931, 746, 840, 819, 889, 802, 658, 879, 885, 665, 690, 779, 925, 679, 731, 673, 642, 633, 698, 754, 712, 691, 806, 588, 691, 723, 667, 702, 794, 901, 740, 620, 676, 677, 535, 642, 680, 640, 625, 653, 749, 691, 581, 592, 735, 745, 710, 743, 735, 652, 585, 652, 713, 736, 792, 816, 859, 727, 656, 688, 879, 934, 765, 944, 898, 706, 693, 878, 1090, 962, 662, 735, 717, 739, 539, 778, 946, 739, 691, 733, 856, 813, 611, 797, 1003, 867, 533, 748, 808, 635, 575, 793, 941, 820, 648, 710, 757, 644, 637, 698, 738, 774, 561, 584, 680, 613, 535, 625, 645, 608, 553, 560, 674, 571, 491, 618, 661, 603, 591, 572, 561, 587, 514, 459, 603, 654, 627, 547, 532, 549, 458, 431, 474, 574, 514, 489, 487, 512, 441, 403, 391, 456, 529, 566, 464, 340, 461, 539, 492, 465, 499, 637, 596, 435, 488, 513, 585, 511, 535, 524, 516, 496, 498, 470, 508, 545]"
0.7767157554626465,-0.6352307796478271,-0.6650635600090027,0.2046383023262024,-0.9152794480323792,-0.6184684038162231,-0.053021520376205444,-1.0689361095428467,1.281595230102539,18.75,-0.16513895988464355,0.9085178375244141,17.5,-0.01665186882019043,0.8960723876953125,18.75,0.01253056526184082,0.7744789123535156,15.75,0.059165239334106445,0.7880687713623047,18.25,"[641, 653, 682, 663, 709, 660, 684, 648, 567, 687, 654, 641, 771, 709, 669, 620, 469, 567, 624, 533, 542, 604, 622, 472, 530, 571, 564, 530, 497, 568, 561, 469, 525, 568, 564, 505, 421, 532, 525, 488, 503, 544, 507, 484, 446, 445, 531, 508, 541, 443, 498, 475, 463, 506, 557, 550, 470, 505, 522, 490, 487, 498, 524, 519, 531, 542, 451, 480, 516, 478, 476, 465, 447, 532, 570, 495, 455, 476, 509, 392, 472, 592, 585, 557, 511, 501, 527, 465, 573, 553, 490, 515, 517, 634, 588, 457, 490, 528, 514, 503, 452, 464, 521, 488, 559, 559, 522, 521, 501, 541, 573, 523, 546, 534, 535, 501, 521, 501, 580, 587, 460, 577, 491, 461, 545, 565, 602, 476, 523, 553, 548, 563, 576, 557, 492, 496, 530, 491, 560, 633, 553, 488, 512, 583, 569, 540, 510, 567, 557, 579, 583, 583, 494, 562, 560, 585, 595, 605, 613, 564, 503, 620, 627, 581, 592, 646, 611, 496, 578, 602, 605, 578, 521, 518, 555, 515, 562, 570, 564, 583, 593, 571, 550, 527, 472, 452, 594, 627, 529, 561, 581, 521, 494, 546, 587, 502, 533, 604, 598, 567, 592, 653, 603, 587, 657, 622, 625, 626, 696, 812, 605, 575, 647, 681, 595, 541, 624, 657, 614, 588, 597, 586, 550, 536, 502, 559, 583, 544, 608, 628, 527, 555, 552, 528, 494, 487, 565, 616, 557, 510, 561, 459, 486, 602, 521, 484, 495, 564, 563, 471, 517, 650, 620, 522, 514, 499, 547, 594, 518, 566, 525, 576, 573, 490, 560, 658, 649, 579, 533, 538, 541, 546, 593, 591, 606, 573, 614, 573, 562, 604, 481, 566, 579, 512, 545, 589, 622, 589, 576, 489, 519, 501, 519, 471, 542, 645, 534, 515, 591, 553, 480, 570, 620, 611, 674, 710, 742, 587, 573, 666, 638, 671, 687, 518, 537, 595, 647, 639, 598, 694, 626, 510, 575, 626, 636, 614, 514, 574, 640, 873, 1017, 869, 594, 984, 1520, 1318, 1278, 1947, 2570, 2224, 1068, 2391, 4774, 4262, 1840, 2589, 3601, 2944, 1424, 3041, 6327, 5788, 1530, 1892, 2547, 2268, 1236, 2231, 4445, 4120, 1484, 1474, 2008, 2140, 1345, 1825, 3728, 3585, 1781, 1483, 1857, 1613, 1389, 1652, 3020, 3165, 4435, 3651, 4518, 3204, 2878, 3888, 7009, 7259, 7986, 7517, 10021, 7375, 5332, 8243, 17003, 16881, 8113, 6819, 9939, 8358, 5680, 7828, 18413, 18650, 4948, 3417, 5187, 4642, 3250, 3412, 9035, 9666, 1822, 2263, 2821, 2024, 1230, 1349, 2214, 2420, 1060, 2453, 3300, 2101, 780, 1288, 2108, 2078, 1005, 2071, 2927, 1998, 780, 1262, 2238, 2376, 1250, 1247, 2191, 1815, 942, 915, 1979, 2353, 1338, 1557, 2426, 1918, 977, 1212, 2431, 2570, 1941, 3817, 4878, 3040, 1290, 2488, 4700, 4358, 2571, 4772, 5837, 3490, 1513, 2798, 5570, 5164, 2071, 3209, 3811, 2294, 1243, 2151, 4252, 3983, 1352, 1770, 1732, 1233, 964, 1409, 2256, 2050, 958, 1546, 1762, 1102, 741, 1285, 1881, 1569, 846, 1471, 1588, 1026, 692, 1171, 1491, 1234, 781, 1205, 1212, 887, 640, 939, 1084, 941, 674, 918, 940, 697, 597, 868, 900, 690, 701, 816, 700, 607, 645, 685, 751, 660, 659, 719, 711, 719, 701, 682, 819, 747, 576, 791, 756, 711, 656, 693, 786, 667, 766, 999, 902, 775, 695, 782, 839, 601, 799, 1049, 917, 717, 684, 751, 865, 674, 2064, 2711, 2610, 1909, 1575, 2035, 2100, 1580, 5136, 6320, 5873, 4400, 3379, 4863, 5088, 3767, 6377, 7934, 7364, 5592, 3996, 5945, 6323, 4691, 4891, 6774, 6013, 4016, 3211, 4303, 4519, 3585, 3028, 4313, 3918, 2575, 2313, 2679, 2824, 2279, 2085, 2899, 3206, 2124, 1467, 2405, 2627, 1835, 1959, 2462, 2837, 1762, 1280, 2269, 2145, 1503, 1594, 2100, 2070, 1135, 1248, 1518, 1413, 1077, 1094, 1452, 1194, 891, 1062, 1050, 1145, 869, 945, 1407, 1347, 837, 1061, 1227, 1146, 862, 1116, 2218, 2102, 875, 1129, 1522, 1379, 939, 979, 1884, 1842, 824, 1066, 1354, 1265, 982, 733, 1090, 1250, 893, 895, 949, 1050, 1012, 810, 964, 927, 658, 784, 792, 831, 867, 783, 905, 851, 608, 688, 759, 841, 836, 683, 863, 887, 613, 584, 749, 806, 778, 728, 851, 897, 687, 737, 851, 782, 790, 671, 809, 835, 663, 707, 812, 820, 746, 629, 852, 959, 725, 639, 819, 903, 759, 932, 954, 1040, 925, 762, 892, 1174, 1154, 1123, 848, 831, 893, 816, 654, 1070, 1302, 798, 682, 707, 694, 711, 693, 889, 888, 681, 703, 679, 693, 691, 595, 672, 667, 695, 741, 679, 671, 610, 581, 709, 667, 686, 719, 655, 560, 669, 703, 696, 647, 666, 809, 901, 672, 682, 710, 881, 880, 598, 838, 871, 620, 560, 736, 900, 751, 499, 804, 806, 674, 699, 803, 809, 549, 560, 740, 663, 580, 691, 700, 608, 496, 532, 644, 662, 581, 495, 532, 613, 620, 569, 667, 768, 785, 617, 543, 730, 720, 756, 662, 660, 715, 732, 644, 673, 789, 750, 654, 591, 602, 695, 660, 613, 717, 967, 589, 723, 808, 781, 577, 918, 1253, 1434, 714, 1167, 1258, 1054, 862, 1741, 2155, 2021, 751, 1626, 1767, 1468, 810, 2343, 3105, 2087, 777, 1617, 1907, 1499, 686, 2392, 3190, 1640, 742, 1246, 1560, 1395, 686, 1935, 2553, 1091, 716, 812, 908, 1074, 785, 897, 1310, 766, 671, 710, 852, 792, 727, 730, 755, 905, 658, 768, 855, 770, 706, 960, 1100, 889, 968, 927, 681, 712, 741, 1025, 1023, 713, 914, 876, 719, 750, 739, 856, 788, 706, 925, 732, 666, 747, 729, 729, 704, 753, 919, 853, 791, 735, 848, 1012, 711, 688, 883, 895, 849, 705, 883, 1023, 661, 652, 684, 704, 819, 726, 770, 914, 641, 640, 960, 1058, 805, 559, 824, 1180, 1012, 672, 1082, 1367, 968, 596, 810, 1291, 1241, 666, 791, 965, 832, 611, 675, 911, 909, 730, 610, 735, 672, 573, 715, 798, 855, 540, 600, 701, 691, 435, 734, 915, 673, 542, 666, 834, 736, 544, 633, 855, 685, 521, 563, 737, 714, 560, 578, 725, 686, 458, 500, 674, 610, 490, 554, 671, 577, 405, 507, 592, 520, 498, 573, 565, 413, 532, 675, 674, 530, 529, 565, 595, 521, 617, 820, 676, 496, 463, 525, 591, 468, 727, 749, 601, 516, 467, 503, 594, 549]"
0.7661731839179993,-0.9050441980361938,-0.748052179813385,0.07670152932405472,-1.27378249168396,-0.7205720543861389,-0.3005499541759491,-0.2941139340400696,0.8730411529541016,23.25,-0.13218003511428833,0.7049560546875,26.75,-0.11844712495803833,0.7156848907470703,25.25,-0.023032009601593018,0.6410121917724609,22.5,0.1009933352470398,0.4676342010498047,17.0,"[466, 550, 604, 574, 568, 577, 606, 547, 462, 486, 593, 637, 604, 607, 663, 596, 573, 647, 687, 576, 515, 662, 652, 567, 528, 613, 585, 500, 544, 598, 619, 510, 502, 552, 540, 467, 538, 537, 483, 440, 492, 542, 492, 496, 559, 572, 543, 534, 505, 570, 572, 514, 475, 526, 561, 499, 635, 614, 609, 639, 570, 523, 596, 593, 560, 524, 583, 595, 554, 522, 558, 600, 543, 602, 590, 512, 558, 620, 576, 497, 508, 488, 535, 469, 485, 534, 516, 453, 523, 507, 553, 460, 456, 477, 556, 583, 553, 541, 555, 528, 470, 455, 503, 542, 612, 542, 556, 535, 512, 421, 443, 536, 518, 449, 490, 484, 463, 442, 462, 509, 536, 610, 511, 440, 476, 487, 513, 570, 542, 478, 447, 441, 552, 542, 477, 556, 610, 556, 557, 596, 602, 555, 551, 576, 504, 589, 590, 511, 541, 562, 567, 544, 553, 576, 561, 548, 560, 584, 589, 563, 493, 588, 502, 466, 481, 564, 562, 501, 499, 558, 524, 558, 579, 635, 705, 585, 576, 571, 534, 620, 657, 653, 638, 650, 582, 599, 547, 571, 583, 523, 524, 539, 554, 596, 574, 496, 544, 519, 477, 539, 594, 583, 553, 500, 495, 467, 449, 547, 541, 630, 586, 510, 527, 584, 548, 447, 522, 561, 569, 539, 597, 615, 536, 493, 625, 522, 533, 601, 593, 549, 496, 538, 483, 618, 597, 546, 573, 591, 575, 482, 633, 698, 752, 620, 605, 588, 594, 675, 560, 627, 593, 507, 586, 539, 602, 614, 500, 505, 476, 515, 492, 437, 509, 506, 580, 600, 569, 605, 543, 548, 542, 524, 594, 625, 545, 505, 529, 578, 567, 483, 638, 614, 493, 456, 600, 600, 463, 503, 939, 1325, 1364, 920, 827, 1455, 2165, 1873, 2305, 3896, 4872, 2847, 1603, 4045, 7853, 7055, 3610, 5559, 7473, 4463, 2360, 5690, 12015, 11209, 3053, 4406, 5914, 3948, 2118, 4750, 10150, 9449, 2164, 3165, 4141, 3019, 1607, 3486, 7220, 6627, 1685, 2451, 3305, 2413, 1249, 2673, 5310, 4859, 889, 1443, 1919, 1492, 865, 1562, 2637, 2382, 1137, 1067, 1240, 1110, 882, 975, 1601, 1699, 1895, 1661, 2850, 2171, 1209, 1529, 3927, 4189, 1915, 2044, 3463, 2514, 1212, 2043, 4789, 4868, 1304, 1672, 2459, 1745, 818, 1753, 3723, 3559, 991, 1541, 1812, 1327, 829, 1351, 2118, 1829, 1489, 2912, 3255, 1796, 1129, 1845, 2106, 1497, 2117, 4990, 5486, 2700, 1528, 2778, 3427, 2532, 1644, 4175, 4548, 2341, 1188, 2256, 3190, 2384, 1104, 2093, 2244, 1351, 836, 1307, 1821, 1497, 1868, 2482, 2303, 1298, 1030, 1544, 2015, 1645, 3570, 5380, 4679, 2085, 1543, 3067, 4439, 3343, 4305, 7238, 7289, 3576, 1691, 4372, 7463, 6061, 3283, 5846, 6968, 3994, 1368, 3910, 7516, 6783, 2135, 3621, 4521, 2704, 1065, 2554, 4769, 4381, 1135, 1913, 2276, 1542, 848, 1345, 2223, 2001, 1205, 1773, 1952, 1436, 927, 1150, 1622, 1522, 1222, 2318, 2458, 1469, 901, 1436, 2076, 1705, 889, 1669, 1770, 1022, 725, 1162, 1661, 1352, 793, 883, 885, 758, 660, 814, 907, 820, 1126, 1374, 1077, 653, 861, 971, 977, 817, 2015, 2647, 1948, 873, 1291, 1193, 1124, 919, 2849, 3603, 2709, 1283, 1670, 1524, 1402, 1322, 2728, 3133, 2454, 1467, 1493, 1442, 1282, 1484, 3222, 3679, 3147, 2628, 2543, 2125, 2171, 2178, 6507, 6929, 6366, 6341, 4782, 4338, 4938, 4647, 7562, 7861, 7257, 7174, 5115, 5422, 5877, 5279, 4507, 6114, 5502, 3788, 2979, 4005, 4335, 3340, 2796, 5218, 5169, 2681, 1793, 3216, 3853, 2557, 1459, 3010, 3199, 1740, 966, 1851, 2398, 1664, 1099, 1519, 1558, 1124, 823, 1085, 1234, 1172, 969, 1568, 1692, 1113, 808, 1048, 1174, 979, 931, 1201, 1243, 971, 826, 887, 981, 897, 900, 1045, 1029, 948, 887, 719, 848, 925, 842, 1136, 1140, 893, 873, 819, 939, 876, 989, 1229, 1332, 980, 851, 1030, 1106, 1004, 830, 972, 1233, 940, 618, 898, 981, 931, 802, 863, 867, 807, 792, 892, 862, 798, 701, 670, 764, 761, 790, 775, 766, 694, 646, 682, 692, 657, 694, 795, 783, 740, 685, 721, 701, 592, 642, 744, 655, 622, 702, 766, 795, 696, 728, 759, 691, 676, 609, 851, 888, 672, 639, 827, 816, 727, 729, 854, 741, 656, 599, 722, 804, 683, 824, 929, 863, 731, 747, 740, 785, 723, 811, 968, 849, 668, 730, 760, 750, 672, 591, 739, 748, 540, 592, 609, 698, 641, 690, 696, 669, 668, 652, 572, 647, 725, 780, 862, 777, 718, 808, 612, 664, 740, 805, 907, 836, 778, 798, 617, 728, 749, 784, 817, 849, 838, 746, 675, 733, 839, 798, 866, 868, 793, 767, 689, 750, 804, 833, 796, 696, 713, 808, 740, 705, 768, 705, 772, 731, 675, 830, 794, 675, 688, 725, 706, 612, 671, 760, 773, 677, 642, 675, 639, 684, 695, 751, 719, 643, 687, 633, 580, 588, 632, 692, 654, 613, 645, 683, 591, 616, 646, 698, 706, 632, 693, 728, 597, 605, 736, 741, 617, 581, 730, 718, 547, 686, 737, 624, 565, 634, 783, 568, 582, 761, 721, 677, 713, 843, 846, 580, 661, 835, 699, 656, 813, 1206, 1143, 772, 768, 1090, 1151, 778, 801, 1442, 1458, 1322, 769, 1327, 1510, 1048, 859, 1586, 1879, 1399, 803, 1104, 1199, 996, 930, 1364, 1772, 824, 859, 836, 821, 725, 950, 1031, 888, 638, 1117, 1190, 823, 603, 904, 1211, 1061, 869, 1168, 1290, 1033, 880, 873, 1145, 1160, 932, 990, 981, 1024, 884, 813, 1198, 1194, 1025, 1005, 1000, 1097, 1027, 962, 1468, 1495, 941, 932, 1066, 1107, 859, 871, 1224, 1240, 705, 1141, 1211, 912, 670, 987, 1438, 1167, 653, 954, 1016, 889, 683, 983, 1650, 1375, 792, 954, 943, 893, 733, 782, 1200, 1117, 787, 1016, 939, 738, 650, 793, 952, 835, 570, 781, 824, 671, 578, 663, 844, 764, 448, 678, 830, 670, 554, 625, 867, 836, 718, 741, 733, 589, 600, 721, 774, 780, 773, 799, 635, 499, 595, 784, 754, 583, 698, 738, 659, 559, 590, 668, 739, 715, 541, 600, 613, 495, 541, 564, 602, 604, 445, 560, 606, 523, 402, 558, 670, 549, 445, 571, 574, 463, 417, 546, 592, 458, 456, 491, 523, 444, 494, 548, 606, 559, 414, 420, 524, 485, 436, 489, 611, 610, 500, 488, 506, 447, 399, 394, 475, 570]"
0.5863140821456909,-1.2626622915267944,-0.36068254709243774,-0.3776128888130188,-1.3708773851394653,0.0945473313331604,-0.6850078701972961,-0.1280500888824463,-0.6530284881591797,19.0,-0.10344529151916504,0.4539012908935547,15.5,-0.04407906532287598,0.22072792053222656,20.0,-0.02719902992248535,0.0,18.5,0.06993269920349121,-0.07939338684082031,16.5,"[560, 605, 631, 567, 589, 573, 631, 602, 564, 573, 609, 620, 658, 624, 618, 594, 455, 552, 589, 555, 592, 664, 638, 499, 503, 548, 621, 573, 534, 562, 544, 523, 554, 585, 574, 478, 521, 582, 537, 495, 563, 586, 585, 534, 498, 548, 584, 562, 534, 529, 534, 559, 673, 662, 583, 477, 581, 630, 603, 552, 612, 674, 651, 550, 534, 512, 536, 555, 527, 567, 523, 525, 608, 524, 498, 472, 467, 552, 585, 600, 538, 542, 529, 512, 550, 625, 596, 503, 599, 533, 613, 675, 543, 530, 566, 574, 489, 546, 573, 619, 574, 492, 560, 523, 555, 526, 633, 567, 490, 573, 615, 596, 599, 681, 736, 700, 538, 609, 692, 586, 586, 666, 587, 481, 594, 634, 507, 541, 570, 605, 498, 424, 460, 504, 482, 435, 602, 577, 612, 575, 509, 507, 494, 540, 477, 434, 509, 524, 506, 498, 531, 572, 548, 412, 452, 547, 549, 482, 466, 605, 564, 449, 494, 491, 505, 445, 516, 609, 558, 490, 563, 667, 695, 636, 692, 692, 477, 545, 546, 528, 513, 572, 597, 546, 543, 611, 591, 593, 471, 476, 522, 559, 493, 616, 574, 515, 421, 453, 572, 533, 550, 630, 607, 528, 436, 475, 556, 540, 641, 649, 654, 644, 555, 570, 630, 550, 572, 611, 559, 515, 535, 577, 525, 499, 596, 582, 590, 544, 561, 615, 609, 609, 648, 598, 573, 525, 543, 584, 511, 575, 1014, 1274, 1237, 865, 672, 1236, 1643, 1428, 1625, 3338, 3208, 1566, 934, 3007, 4787, 3772, 1410, 4055, 3868, 1663, 714, 3407, 5728, 4386, 863, 2643, 2506, 1112, 592, 2015, 3480, 2710, 1130, 3084, 3089, 1477, 796, 2461, 3817, 2764, 1915, 5054, 5232, 2508, 1010, 3686, 6255, 4756, 1700, 5641, 5975, 2886, 843, 4074, 7003, 5422, 1354, 3830, 3831, 1879, 783, 2831, 4665, 3618, 1240, 1938, 1657, 841, 696, 1628, 2240, 1709, 1037, 1404, 1118, 644, 684, 1260, 1377, 1081, 871, 1282, 1213, 786, 603, 967, 1413, 1178, 889, 1711, 1616, 929, 644, 1184, 1826, 1337, 562, 1291, 1307, 839, 624, 1182, 1725, 1308, 630, 1220, 1329, 873, 669, 1043, 1604, 1357, 809, 1832, 1934, 1105, 681, 1641, 2884, 2371, 1915, 1895, 2072, 1461, 999, 2244, 4063, 3773, 7645, 10074, 7217, 2124, 2837, 4219, 4563, 3253, 16592, 26222, 19918, 6311, 6021, 12444, 16481, 8780, 15409, 24737, 18805, 6273, 5584, 12157, 16942, 9554, 6025, 9511, 7237, 2576, 2363, 4819, 6809, 4152, 1401, 2774, 2556, 1422, 944, 1958, 2872, 2204, 1500, 2938, 3067, 1651, 1055, 2325, 3661, 2974, 1135, 2894, 3066, 1607, 790, 1958, 3397, 2722, 985, 2436, 2497, 1277, 792, 1523, 2366, 1827, 889, 1603, 1545, 816, 646, 992, 1285, 987, 840, 954, 967, 754, 701, 833, 802, 666, 910, 1402, 1342, 745, 874, 924, 769, 683, 1467, 2169, 1883, 820, 1063, 1243, 1205, 928, 2816, 4094, 3642, 1643, 2227, 2992, 2238, 1462, 3788, 5482, 5884, 3054, 3313, 4811, 3221, 2419, 2649, 4127, 4867, 2698, 2537, 3984, 2443, 2085, 1473, 2099, 2467, 1413, 1376, 2003, 1223, 1061, 941, 1114, 1152, 808, 774, 1071, 985, 756, 1185, 1462, 1424, 855, 1010, 1204, 954, 898, 1953, 2816, 2377, 1160, 1605, 1750, 1077, 1075, 1892, 2603, 2223, 1320, 1424, 1446, 984, 1032, 1110, 1479, 1458, 1045, 849, 1089, 943, 814, 924, 1170, 1124, 768, 737, 1042, 888, 736, 956, 1182, 1065, 669, 752, 1001, 917, 723, 895, 1132, 1116, 709, 722, 936, 912, 779, 1001, 1066, 1014, 756, 842, 934, 796, 680, 907, 991, 758, 588, 665, 798, 741, 599, 620, 832, 734, 581, 526, 705, 705, 581, 710, 862, 900, 694, 722, 715, 795, 800, 830, 972, 938, 736, 870, 856, 836, 855, 788, 1145, 1040, 689, 846, 850, 781, 718, 858, 1242, 1177, 735, 795, 817, 901, 783, 848, 1266, 1099, 621, 799, 846, 844, 656, 797, 1247, 1143, 731, 852, 837, 847, 704, 800, 947, 785, 738, 888, 793, 716, 654, 953, 1081, 916, 839, 999, 949, 721, 754, 1032, 1058, 839, 940, 1055, 1039, 822, 785, 871, 885, 842, 736, 738, 881, 927, 917, 926, 1008, 977, 837, 808, 864, 891, 969, 765, 961, 1035, 845, 752, 823, 844, 874, 657, 847, 973, 831, 632, 795, 893, 830, 577, 725, 861, 809, 618, 679, 855, 729, 570, 617, 662, 645, 647, 681, 714, 675, 540, 626, 628, 471, 561, 624, 624, 604, 565, 636, 579, 526, 578, 587, 658, 608, 672, 610, 545, 549, 621, 602, 590, 625, 657, 658, 592, 665, 709, 709, 651, 642, 751, 656, 543, 604, 709, 761, 719, 698, 1144, 865, 686, 802, 912, 877, 927, 1180, 1166, 825, 779, 924, 906, 841, 1009, 1216, 703, 742, 756, 749, 754, 843, 880, 770, 681, 697, 732, 682, 566, 595, 633, 634, 698, 668, 599, 632, 649, 653, 713, 727, 718, 589, 592, 653, 620, 672, 646, 681, 748, 620, 724, 746, 712, 709, 824, 861, 798, 727, 764, 733, 739, 701, 1003, 1044, 1006, 800, 806, 869, 764, 778, 1163, 1226, 1190, 879, 817, 802, 848, 826, 1096, 1369, 1162, 876, 759, 731, 935, 869, 1075, 1377, 1172, 949, 1197, 1016, 943, 1017, 1796, 1893, 1962, 1304, 2136, 1576, 1249, 1238, 3048, 3583, 2309, 1780, 2629, 1556, 1361, 1490, 3619, 4265, 1813, 2316, 3378, 2301, 1316, 1886, 4032, 4215, 1320, 2000, 3060, 2238, 1075, 1638, 3507, 3520, 1022, 1395, 1810, 1266, 736, 1080, 1974, 1856, 1259, 1164, 1171, 836, 858, 1088, 1512, 1577, 1149, 1372, 1559, 1363, 923, 1220, 1838, 1699, 1237, 1476, 1560, 1390, 931, 1346, 1824, 1544, 1131, 1186, 1226, 1085, 885, 1181, 1318, 1083, 1270, 1073, 1297, 1364, 934, 999, 1556, 1636, 1533, 1525, 2044, 1571, 951, 1213, 2137, 2249, 971, 1545, 1908, 1239, 695, 1360, 2138, 1861, 1026, 1269, 1257, 1114, 895, 1208, 1388, 998, 1192, 1072, 1161, 1237, 994, 1090, 1025, 1063, 949, 951, 1253, 1175, 760, 989, 1103, 1074, 672, 826, 900, 704, 615, 1070, 1177, 860, 578, 711, 680, 578, 585, 918, 1037, 764, 614, 759, 764, 557, 572, 658, 734, 669, 751, 675, 708, 559, 613, 615, 708, 841, 608, 518, 613, 511, 453, 482, 645, 793, 533, 631, 550, 424, 449, 552, 596, 508, 459, 491, 459, 421, 491, 544, 499, 419, 432, 488, 443, 459, 482, 509, 440, 422]"
0.24150270223617554,-1.3158197402954102,0.12365269660949707,-1.1395611763000488,-1.267593264579773,0.8031677603721619,-1.4841176271438599,-0.19096696376800537,0.27365684509277344,24.5,-0.16807878017425537,0.0,23.5,-0.13832414150238037,-0.15048980712890625,18.5,-0.09040200710296631,0.0,16.0,1.5645567178726196,1.2479782104492188,15.75,"[548, 620, 707, 685, 640, 681, 713, 623, 516, 589, 583, 660, 638, 644, 665, 588, 487, 519, 541, 580, 565, 585, 613, 538, 565, 631, 584, 508, 545, 540, 537, 555, 463, 546, 518, 421, 497, 491, 472, 519, 493, 531, 548, 516, 525, 552, 538, 514, 503, 515, 545, 519, 486, 469, 475, 496, 427, 498, 529, 429, 474, 573, 553, 490, 555, 491, 436, 533, 504, 519, 526, 479, 551, 579, 569, 549, 580, 610, 499, 480, 564, 467, 498, 527, 490, 544, 471, 491, 606, 596, 560, 536, 563, 555, 513, 549, 514, 517, 544, 537, 520, 515, 591, 563, 567, 551, 508, 536, 475, 449, 542, 564, 653, 699, 543, 498, 527, 529, 504, 452, 592, 658, 556, 532, 622, 598, 519, 516, 568, 591, 583, 536, 539, 566, 499, 549, 504, 503, 533, 516, 580, 575, 489, 491, 567, 534, 535, 481, 549, 512, 465, 570, 654, 523, 516, 562, 582, 511, 532, 666, 594, 564, 581, 597, 569, 528, 556, 625, 585, 602, 533, 604, 638, 557, 561, 560, 611, 601, 563, 588, 549, 517, 475, 601, 566, 534, 617, 612, 550, 444, 549, 637, 497, 551, 624, 591, 567, 516, 547, 547, 536, 672, 596, 532, 559, 575, 571, 483, 593, 705, 607, 527, 601, 665, 580, 488, 545, 569, 651, 553, 516, 611, 638, 617, 739, 2059, 2177, 1082, 743, 2007, 2806, 2010, 2478, 6546, 5831, 2240, 2009, 6056, 7847, 4606, 4229, 7871, 6359, 2550, 2773, 7443, 8845, 4699, 2890, 3186, 2381, 1546, 1760, 3379, 3330, 1938, 1512, 4162, 4406, 2064, 871, 2754, 4744, 3776, 4241, 8832, 7814, 3067, 1880, 6086, 8637, 5559, 3807, 7391, 6371, 2423, 1767, 4939, 6640, 4136, 1877, 4078, 3562, 1433, 1023, 2852, 4507, 3263, 950, 2471, 2273, 1032, 647, 1884, 3173, 2474, 674, 1111, 1161, 699, 558, 991, 1481, 1295, 872, 1120, 968, 593, 658, 969, 958, 625, 851, 1230, 1042, 632, 736, 1047, 1128, 770, 766, 923, 789, 624, 689, 833, 766, 643, 840, 901, 729, 612, 763, 744, 779, 698, 882, 1125, 937, 629, 664, 873, 903, 658, 1056, 1643, 1365, 777, 799, 1001, 1014, 710, 1751, 2921, 2478, 1006, 1108, 1502, 2047, 1368, 3697, 6599, 5312, 1607, 1945, 2965, 4106, 1956, 4247, 7171, 5555, 1617, 2143, 3079, 4156, 1715, 2888, 4553, 3411, 1111, 1533, 2072, 2569, 1096, 2148, 3310, 2537, 1039, 1247, 1597, 1874, 983, 2018, 2895, 2186, 1131, 1351, 1514, 1650, 1000, 2388, 3256, 2324, 1028, 1393, 1676, 1898, 1063, 2772, 3960, 2813, 990, 1741, 1839, 2155, 1137, 2981, 4183, 2915, 985, 1919, 1831, 2059, 1115, 2432, 3379, 2260, 969, 1724, 1472, 1451, 954, 1814, 2503, 1783, 968, 1312, 1205, 1063, 807, 2346, 3039, 2299, 1211, 1599, 1772, 1315, 1121, 3299, 4182, 3298, 1610, 2128, 2620, 1657, 1535, 2639, 3558, 2921, 1506, 1752, 1956, 1361, 1335, 2532, 3505, 2483, 1097, 1815, 1781, 1555, 1012, 3453, 4444, 2919, 1388, 2342, 2216, 2096, 1274, 3521, 4322, 2761, 1787, 2363, 2355, 2144, 1515, 2576, 3387, 2402, 1512, 1907, 1980, 1839, 1402, 1837, 2406, 1934, 1149, 1384, 1402, 1360, 1351, 1263, 1473, 1084, 769, 924, 818, 755, 914, 1070, 1225, 924, 704, 823, 727, 716, 727, 1045, 1190, 1037, 657, 702, 743, 885, 830, 1062, 1188, 918, 586, 761, 891, 845, 799, 907, 1141, 894, 516, 731, 814, 744, 587, 845, 987, 873, 661, 765, 804, 678, 656, 901, 1018, 924, 750, 810, 802, 751, 827, 819, 1094, 920, 675, 616, 769, 817, 630, 801, 978, 802, 655, 721, 692, 642, 657, 794, 930, 743, 497, 610, 707, 762, 679, 955, 1073, 892, 601, 682, 896, 902, 773, 1044, 1161, 922, 562, 778, 836, 789, 804, 919, 944, 834, 617, 733, 833, 747, 764, 689, 759, 708, 571, 599, 816, 789, 698, 664, 739, 654, 620, 721, 715, 682, 627, 592, 710, 758, 650, 746, 723, 642, 663, 634, 838, 840, 633, 759, 809, 670, 568, 917, 1040, 801, 677, 936, 933, 693, 662, 1009, 970, 717, 796, 938, 787, 642, 774, 874, 867, 716, 700, 718, 670, 678, 754, 742, 790, 739, 716, 706, 680, 709, 702, 685, 726, 823, 794, 694, 654, 728, 668, 725, 786, 832, 809, 831, 931, 803, 709, 683, 628, 807, 798, 724, 806, 822, 779, 553, 620, 668, 650, 613, 624, 700, 657, 606, 618, 568, 531, 540, 587, 616, 632, 598, 642, 624, 595, 587, 605, 763, 661, 594, 703, 818, 759, 559, 699, 920, 760, 668, 866, 914, 791, 522, 742, 949, 825, 628, 737, 795, 638, 538, 650, 718, 669, 649, 620, 617, 561, 523, 660, 650, 641, 794, 699, 722, 745, 542, 647, 777, 781, 766, 702, 696, 733, 653, 652, 675, 702, 541, 633, 636, 615, 531, 659, 682, 544, 638, 685, 676, 549, 541, 653, 676, 633, 607, 711, 654, 612, 597, 625, 678, 672, 635, 803, 670, 566, 736, 721, 633, 710, 767, 685, 586, 651, 729, 734, 583, 661, 795, 653, 610, 654, 643, 644, 563, 714, 648, 589, 620, 622, 600, 608, 576, 652, 975, 739, 631, 682, 590, 665, 615, 885, 1183, 691, 772, 508, 738, 754, 1054, 1419, 1466, 1272, 1275, 747, 901, 1304, 2320, 2367, 1420, 1875, 2238, 1455, 878, 1714, 3145, 2894, 1588, 1744, 2699, 2098, 1098, 1694, 3278, 3350, 2115, 1985, 3323, 2712, 1265, 2173, 3891, 4183, 2094, 2002, 2887, 2408, 1300, 1873, 3083, 3429, 1695, 2120, 2393, 1755, 1271, 1459, 2260, 2274, 1359, 2113, 2143, 1400, 1007, 1347, 1935, 1629, 1301, 1601, 1690, 1269, 907, 1133, 1725, 1721, 1273, 1144, 1760, 1330, 753, 959, 1858, 2098, 1253, 1731, 2188, 1348, 770, 1196, 2384, 2461, 1356, 1607, 1879, 1222, 828, 1173, 1975, 2050, 1044, 1131, 1264, 851, 769, 792, 1157, 1351, 815, 933, 1063, 815, 696, 707, 1127, 1247, 667, 818, 1139, 1045, 666, 843, 1071, 1017, 823, 852, 978, 925, 610, 858, 1090, 1033, 700, 664, 708, 711, 576, 699, 986, 955, 606, 698, 728, 692, 601, 664, 909, 905, 569, 695, 779, 682, 576, 689, 929, 798, 572, 605, 812, 669, 573, 692, 1014, 965, 545, 585, 619, 530, 500, 472, 702, 773, 527, 650, 558, 427, 464, 489, 509, 442, 697, 673, 578, 538, 462, 492, 534, 556, 605, 486, 474, 519, 468, 485, 449, 532]"
0.10943606495857239,-1.3361104726791382,0.008214235305786133,-1.3023802042007446,-1.1153792142868042,0.44661009311676025,-1.4976450204849243,-1.0852916240692139,-0.7337093353271484,27.25,-0.7425410747528076,-0.6364345550537109,19.5,-0.5871875286102295,-0.6681919097900391,20.5,-0.4804713726043701,-0.39496421813964844,20.0,-0.20695757865905762,0.06709098815917969,21.5,"[555, 502, 631, 634, 628, 631, 629, 503, 489, 596, 726, 653, 708, 794, 673, 523, 489, 564, 673, 591, 527, 578, 563, 505, 524, 580, 576, 508, 445, 540, 563, 514, 593, 557, 485, 488, 516, 575, 546, 507, 628, 549, 507, 501, 549, 553, 439, 553, 419, 469, 550, 490, 414, 444, 510, 500, 420, 381, 487, 494, 484, 450, 491, 528, 420, 438, 522, 489, 382, 413, 525, 516, 589, 507, 480, 420, 470, 540, 555, 619, 524, 540, 536, 547, 511, 465, 559, 532, 516, 473, 543, 553, 555, 544, 582, 561, 518, 432, 510, 565, 512, 504, 566, 578, 532, 591, 525, 559, 595, 609, 566, 498, 484, 559, 550, 469, 597, 618, 530, 443, 417, 471, 558, 537, 592, 601, 501, 404, 470, 466, 538, 531, 574, 586, 503, 462, 559, 568, 564, 535, 551, 584, 509, 541, 470, 562, 516, 488, 498, 567, 538, 439, 547, 547, 637, 638, 625, 562, 604, 606, 528, 581, 575, 545, 538, 570, 561, 512, 583, 612, 619, 538, 509, 527, 569, 569, 525, 588, 556, 518, 525, 509, 534, 500, 411, 464, 502, 421, 466, 562, 572, 486, 782, 1041, 1034, 728, 676, 1068, 1054, 780, 4056, 7203, 5706, 1772, 2227, 5336, 6144, 2823, 9106, 15402, 11240, 2200, 4489, 10603, 11912, 4004, 8452, 12774, 8635, 1528, 4050, 8300, 8693, 2311, 4454, 5153, 4903, 2683, 1937, 2669, 4736, 5093, 2882, 6436, 6646, 3077, 884, 4058, 7369, 6055, 2405, 4748, 4137, 1834, 911, 3516, 4888, 2983, 1519, 2783, 2100, 952, 1121, 2573, 3139, 1670, 1536, 2799, 2253, 909, 1180, 2779, 3524, 2169, 1215, 1866, 1475, 818, 1017, 1860, 2188, 1460, 1100, 1419, 1103, 725, 850, 990, 1140, 867, 979, 1254, 1002, 717, 696, 868, 975, 752, 942, 1072, 746, 639, 545, 686, 823, 601, 1071, 1309, 920, 621, 702, 784, 914, 612, 3566, 4863, 3098, 811, 1853, 1948, 2057, 774, 6045, 8233, 5149, 1133, 3072, 2838, 3251, 1112, 3981, 5346, 3379, 1058, 2014, 1834, 2221, 1130, 1695, 2155, 1495, 824, 1213, 1222, 1268, 898, 1985, 2811, 2095, 989, 1397, 1410, 1493, 859, 2123, 3207, 2563, 1149, 1440, 1726, 1972, 1182, 2300, 3504, 2818, 1206, 1481, 1863, 2223, 1280, 1937, 2473, 1901, 965, 1290, 1406, 1520, 1025, 1919, 2281, 1445, 822, 1225, 1308, 1214, 891, 1614, 1855, 1170, 740, 1049, 1007, 1017, 872, 1058, 1228, 905, 613, 719, 798, 814, 722, 827, 908, 741, 737, 599, 721, 825, 664, 778, 920, 730, 665, 725, 764, 694, 619, 775, 974, 801, 665, 869, 864, 627, 610, 1165, 1392, 954, 689, 1009, 970, 685, 644, 2208, 2736, 1823, 1024, 1722, 1645, 1150, 1088, 2876, 3866, 2793, 1419, 2377, 2295, 1356, 1278, 2621, 3616, 2676, 1360, 2372, 2103, 1106, 1225, 2219, 3131, 2341, 1130, 2063, 1922, 1133, 1000, 1773, 2554, 1975, 852, 1592, 1760, 1287, 771, 1455, 2170, 1695, 742, 1229, 1472, 1241, 614, 1205, 1624, 1222, 713, 1054, 1125, 935, 763, 910, 1268, 1093, 774, 892, 943, 857, 778, 918, 1264, 1168, 697, 956, 1006, 832, 742, 939, 1110, 939, 652, 856, 879, 692, 664, 847, 961, 865, 609, 687, 709, 675, 698, 743, 887, 783, 572, 575, 653, 710, 690, 620, 744, 762, 688, 554, 527, 703, 724, 740, 905, 843, 672, 673, 719, 800, 733, 877, 1027, 947, 812, 727, 836, 877, 763, 1087, 1042, 783, 771, 723, 818, 743, 782, 889, 796, 702, 732, 746, 723, 671, 775, 689, 777, 712, 679, 633, 658, 767, 740, 784, 926, 790, 581, 660, 733, 676, 706, 849, 1082, 936, 566, 745, 891, 838, 731, 820, 1043, 918, 670, 754, 891, 764, 686, 782, 879, 796, 625, 733, 871, 768, 742, 839, 875, 763, 530, 706, 785, 683, 580, 823, 927, 790, 574, 665, 675, 647, 578, 823, 943, 868, 651, 699, 790, 728, 687, 813, 920, 836, 714, 657, 785, 713, 642, 1004, 1109, 944, 831, 809, 1002, 891, 673, 1315, 1292, 1343, 1087, 896, 1543, 1319, 975, 1586, 1325, 1556, 1376, 971, 1781, 1590, 1220, 1261, 1096, 1274, 1264, 819, 1361, 1351, 1105, 769, 919, 970, 999, 726, 935, 1045, 782, 754, 791, 843, 861, 614, 811, 972, 703, 694, 770, 759, 814, 661, 863, 1025, 769, 715, 861, 732, 680, 708, 832, 1005, 854, 602, 744, 625, 589, 595, 748, 804, 603, 707, 730, 605, 522, 660, 727, 674, 585, 576, 670, 749, 675, 663, 600, 610, 645, 587, 563, 693, 614, 633, 637, 574, 668, 725, 748, 729, 666, 697, 760, 781, 800, 726, 867, 801, 597, 642, 821, 809, 686, 632, 822, 828, 567, 627, 728, 818, 825, 744, 661, 764, 694, 712, 696, 1038, 1062, 1006, 736, 776, 754, 706, 720, 1170, 1276, 821, 771, 742, 650, 635, 730, 953, 957, 684, 681, 731, 695, 592, 636, 622, 688, 786, 776, 745, 769, 637, 551, 580, 706, 744, 773, 736, 775, 679, 696, 878, 849, 734, 643, 623, 769, 807, 753, 924, 997, 750, 590, 594, 586, 750, 725, 766, 818, 896, 739, 746, 717, 738, 697, 698, 860, 761, 852, 787, 654, 685, 681, 801, 861, 927, 860, 615, 626, 694, 878, 1013, 918, 1300, 1150, 1171, 902, 673, 903, 1643, 1798, 1135, 1510, 1575, 883, 732, 1229, 2108, 1831, 1143, 1874, 1885, 1161, 893, 1819, 3154, 2616, 1054, 1655, 2028, 1751, 978, 1916, 3102, 2428, 2100, 1260, 1931, 1970, 1428, 1431, 2166, 2759, 1988, 1211, 1281, 1173, 1266, 1519, 2392, 2893, 1311, 1289, 1066, 857, 1034, 1394, 1845, 1761, 1105, 1340, 1164, 1059, 866, 1321, 1959, 1639, 1049, 1494, 1538, 1353, 751, 1676, 2271, 1603, 1044, 1433, 1671, 1149, 882, 1591, 1796, 1203, 1253, 1404, 1271, 1202, 1102, 1325, 1270, 1120, 1196, 1083, 1048, 1230, 1035, 1034, 959, 1033, 1542, 1150, 1063, 1030, 898, 1103, 1122, 1358, 1611, 1286, 1147, 951, 834, 1131, 1449, 1645, 1129, 1145, 1162, 997, 697, 1020, 1589, 1489, 776, 941, 924, 943, 635, 922, 1214, 998, 951, 1046, 1020, 943, 756, 1061, 1220, 1019, 1167, 1001, 906, 992, 822, 1011, 1109, 1059, 1024, 853, 625, 625, 637, 881, 755, 822, 704, 676, 587, 530, 583, 744, 580, 553, 622, 616, 724, 587, 507, 636, 724, 682, 513, 534, 631, 576, 424, 583, 679, 641, 492, 564, 652, 559, 414, 590, 624, 519]"
-0.09099002182483673,-1.4048404693603516,-0.40318989753723145,-1.5759973526000977,-1.0819079875946045,-0.3667067289352417,-1.6491947174072266,-0.9487091302871704,0.7158279418945312,27.25,-0.20913469791412354,-0.22301673889160156,28.25,-0.18524515628814697,-0.05164146423339844,27.0,-0.17322885990142822,-0.22974014282226562,29.5,-0.11185991764068604,-0.116729736328125,18.5,"[652, 611, 638, 681, 703, 677, 638, 615, 582, 609, 633, 605, 686, 702, 617, 589, 696, 611, 588, 627, 624, 664, 570, 564, 684, 602, 533, 552, 567, 578, 532, 576, 549, 551, 437, 498, 606, 525, 446, 488, 497, 519, 463, 432, 514, 545, 502, 474, 634, 566, 476, 446, 571, 522, 469, 596, 578, 543, 493, 540, 619, 615, 550, 554, 477, 475, 524, 533, 519, 540, 502, 538, 507, 508, 487, 594, 586, 508, 560, 577, 486, 529, 554, 529, 474, 556, 628, 535, 520, 569, 599, 539, 496, 606, 573, 533, 496, 512, 498, 554, 628, 601, 564, 535, 688, 636, 565, 646, 630, 546, 561, 642, 643, 649, 546, 570, 691, 533, 427, 533, 589, 578, 539, 533, 616, 557, 448, 519, 546, 521, 514, 510, 524, 578, 537, 528, 581, 510, 522, 558, 490, 530, 512, 510, 563, 588, 547, 487, 542, 557, 525, 513, 585, 584, 683, 608, 568, 625, 606, 584, 1486, 1381, 981, 959, 1137, 1235, 928, 952, 5292, 6700, 3866, 1445, 3506, 6231, 5473, 1328, 9177, 13086, 8242, 1836, 6127, 12503, 11842, 2592, 7371, 13274, 9957, 2578, 5420, 12482, 13527, 5496, 4062, 11947, 10824, 3523, 3490, 9839, 13411, 8562, 7443, 16278, 12942, 3502, 4028, 12965, 16745, 8565, 6920, 11052, 7962, 1997, 3962, 9203, 9986, 4099, 4012, 5319, 3592, 976, 2576, 4605, 3990, 1361, 2184, 2741, 1948, 871, 1373, 2274, 2095, 1242, 1161, 1668, 1387, 763, 709, 1470, 1706, 1129, 758, 1182, 1009, 563, 733, 1142, 1154, 714, 845, 967, 851, 550, 715, 936, 846, 664, 1524, 1855, 1234, 575, 880, 1331, 1220, 622, 5523, 8022, 5433, 1066, 2604, 4344, 4627, 1323, 12075, 18103, 12453, 2196, 5615, 9123, 10410, 2868, 11151, 16856, 11782, 2525, 5339, 7843, 9345, 3079, 5031, 7602, 5452, 1694, 2683, 3381, 3997, 1981, 2367, 3550, 2619, 1027, 1626, 1721, 1877, 1115, 1531, 2271, 1813, 749, 1051, 1225, 1308, 801, 1160, 1518, 1142, 684, 851, 993, 982, 695, 1139, 1329, 925, 607, 750, 866, 873, 634, 927, 1193, 994, 610, 717, 857, 841, 579, 929, 1159, 978, 642, 765, 940, 939, 716, 941, 1048, 865, 668, 732, 903, 915, 684, 929, 1110, 929, 628, 527, 836, 934, 724, 1033, 1233, 965, 639, 621, 784, 949, 728, 1088, 1369, 1131, 781, 970, 952, 893, 736, 949, 1207, 1031, 800, 939, 876, 701, 663, 763, 975, 969, 736, 771, 566, 617, 639, 965, 1266, 1077, 633, 932, 830, 687, 659, 1009, 1519, 1281, 731, 1113, 1079, 835, 782, 1452, 2036, 1647, 1162, 1535, 1489, 996, 950, 1515, 2070, 1776, 1237, 1362, 1413, 1098, 826, 1319, 1962, 1878, 1093, 1135, 1438, 1099, 827, 1465, 2005, 1813, 1097, 1315, 1710, 1322, 980, 1832, 2758, 2196, 950, 1596, 1751, 1296, 974, 2534, 3792, 2763, 737, 1884, 1909, 1407, 832, 2726, 3870, 2727, 896, 1995, 1853, 1321, 979, 2257, 3202, 2351, 903, 1678, 1606, 1343, 923, 1737, 2302, 1683, 817, 1455, 1402, 1063, 816, 1130, 1236, 877, 664, 881, 868, 758, 701, 817, 901, 733, 621, 634, 730, 770, 649, 790, 867, 839, 665, 766, 799, 808, 760, 939, 1131, 1016, 738, 843, 796, 784, 850, 961, 1304, 1147, 664, 869, 908, 808, 802, 1067, 1342, 1067, 606, 816, 910, 830, 768, 880, 1124, 986, 642, 723, 801, 747, 650, 672, 1019, 908, 543, 626, 777, 789, 637, 587, 856, 746, 568, 673, 828, 797, 586, 659, 768, 631, 515, 664, 745, 705, 553, 779, 756, 708, 519, 652, 765, 681, 647, 843, 934, 767, 513, 648, 815, 700, 633, 803, 937, 777, 559, 614, 725, 736, 661, 681, 827, 747, 608, 652, 689, 640, 667, 751, 745, 665, 688, 673, 656, 708, 679, 700, 729, 643, 662, 666, 688, 685, 646, 636, 618, 647, 639, 611, 708, 738, 669, 726, 814, 842, 801, 701, 1008, 990, 801, 778, 920, 980, 823, 824, 1243, 1264, 840, 924, 1105, 1079, 907, 898, 1185, 1285, 989, 900, 1017, 1014, 919, 827, 994, 1087, 953, 788, 810, 960, 862, 771, 838, 873, 842, 750, 702, 785, 710, 792, 854, 777, 748, 827, 831, 770, 693, 877, 902, 742, 771, 764, 797, 773, 632, 675, 690, 692, 721, 638, 829, 808, 693, 579, 686, 750, 624, 705, 741, 681, 672, 655, 687, 758, 715, 573, 669, 682, 603, 597, 679, 601, 547, 565, 619, 689, 603, 610, 711, 637, 587, 756, 716, 656, 680, 657, 726, 704, 752, 891, 798, 780, 742, 669, 751, 791, 873, 890, 821, 675, 671, 674, 796, 827, 790, 845, 910, 800, 780, 757, 917, 890, 696, 923, 793, 903, 919, 842, 1039, 899, 820, 832, 735, 815, 739, 712, 841, 780, 792, 728, 675, 693, 613, 674, 794, 697, 666, 719, 561, 600, 645, 659, 712, 636, 718, 699, 627, 670, 676, 612, 617, 808, 818, 928, 845, 758, 692, 682, 707, 757, 872, 876, 966, 892, 778, 705, 681, 716, 800, 824, 836, 879, 789, 621, 653, 749, 818, 746, 894, 970, 771, 635, 923, 937, 794, 801, 831, 885, 772, 818, 937, 906, 777, 864, 859, 809, 808, 858, 967, 883, 723, 770, 902, 923, 757, 728, 840, 844, 724, 1005, 1131, 1572, 1006, 793, 1019, 1707, 1812, 1852, 1145, 2224, 1592, 1172, 1016, 2534, 3281, 1824, 1066, 2006, 1626, 1073, 910, 1990, 2809, 1922, 1238, 2176, 1745, 1213, 1213, 2817, 3404, 1645, 1148, 1729, 1202, 1314, 1165, 2468, 2978, 1359, 976, 1077, 871, 1269, 1057, 1351, 1739, 1028, 886, 936, 861, 903, 1053, 1348, 1357, 847, 1036, 1052, 737, 801, 1032, 1070, 977, 2151, 1570, 1412, 1020, 1347, 1629, 2305, 2466, 2517, 2074, 1743, 1220, 1459, 1829, 2503, 2710, 1427, 2243, 2160, 1370, 837, 1471, 1844, 1393, 802, 1753, 2197, 1411, 740, 1508, 2346, 1934, 811, 1162, 1490, 1109, 766, 1330, 1534, 1127, 785, 995, 1184, 934, 629, 824, 1036, 989, 763, 839, 967, 840, 555, 862, 1245, 1177, 757, 699, 806, 822, 642, 993, 1295, 1143, 674, 824, 1104, 1014, 639, 1073, 1468, 1181, 575, 616, 945, 846, 510, 849, 1228, 1043, 563, 595, 741, 724, 540, 750, 1046, 959, 607, 489, 496, 520, 499, 566, 732, 775, 550, 493, 557, 516, 506, 610, 697, 648, 555, 501, 567, 498, 506, 600, 560, 562, 627, 522, 542, 519, 509, 555, 590, 657]"
-0.4865330755710602,-1.1024537086486816,-0.6862192749977112,-2.0294089317321777,-0.32991015911102295,-0.630225658416748,-1.804979681968689,-0.7730391621589661,0.9701728820800781,15.5,-0.21728545427322388,-0.3437519073486328,15.75,-0.07938414812088013,-0.14820098876953125,15.5,-0.0762370228767395,-0.2552032470703125,17.5,-0.057783424854278564,-0.2886772155761719,17.0,"[512, 582, 594, 612, 687, 612, 596, 581, 516, 595, 532, 513, 623, 656, 621, 509, 537, 503, 586, 661, 626, 560, 564, 537, 553, 502, 533, 575, 561, 463, 467, 540, 503, 504, 476, 449, 451, 393, 461, 496, 537, 515, 573, 547, 600, 555, 521, 548, 510, 556, 546, 524, 605, 550, 469, 525, 446, 529, 634, 547, 491, 499, 481, 567, 493, 565, 570, 490, 474, 534, 558, 539, 509, 536, 526, 542, 535, 557, 623, 520, 551, 524, 530, 602, 567, 444, 521, 600, 528, 510, 498, 582, 561, 503, 524, 513, 511, 539, 544, 516, 510, 627, 582, 474, 576, 587, 566, 460, 491, 613, 500, 475, 642, 611, 528, 505, 507, 566, 594, 630, 540, 465, 548, 655, 532, 455, 589, 572, 512, 547, 631, 641, 522, 594, 628, 565, 502, 518, 587, 559, 532, 585, 561, 594, 508, 494, 471, 490, 626, 626, 488, 572, 704, 834, 768, 655, 735, 774, 761, 698, 1620, 1973, 2060, 1636, 1633, 2116, 2118, 1654, 2036, 2923, 3344, 2556, 2432, 3204, 3418, 2417, 2123, 3443, 3295, 2129, 1998, 4036, 4196, 2254, 2312, 3274, 2731, 1494, 1826, 4008, 3975, 1749, 1382, 1962, 1501, 971, 1338, 2353, 2283, 1221, 1098, 1914, 1621, 867, 960, 2021, 2379, 1356, 1992, 3074, 2346, 878, 1219, 2478, 2710, 1164, 3268, 4471, 2944, 825, 1839, 2753, 2725, 912, 3684, 4888, 2988, 823, 1882, 2391, 2425, 951, 3344, 4406, 2679, 840, 1745, 1901, 2020, 967, 2218, 2944, 1908, 776, 1329, 1229, 1296, 816, 1218, 1569, 1194, 647, 890, 834, 743, 619, 723, 941, 736, 550, 681, 628, 575, 533, 666, 777, 705, 568, 635, 690, 656, 561, 667, 760, 646, 593, 600, 525, 588, 558, 684, 756, 620, 573, 711, 581, 632, 629, 801, 871, 681, 513, 638, 574, 670, 617, 848, 926, 676, 563, 649, 612, 636, 621, 765, 909, 740, 627, 633, 745, 708, 647, 695, 867, 750, 603, 639, 647, 667, 602, 733, 765, 617, 560, 586, 588, 497, 524, 777, 759, 697, 649, 689, 682, 599, 651, 775, 848, 676, 602, 670, 681, 704, 649, 796, 742, 659, 685, 825, 775, 675, 706, 592, 713, 773, 629, 668, 812, 674, 603, 804, 789, 782, 607, 721, 922, 831, 759, 818, 1040, 915, 678, 816, 984, 969, 781, 950, 1062, 986, 751, 765, 814, 855, 797, 1057, 1203, 1109, 821, 966, 1065, 855, 783, 1272, 1400, 1198, 892, 1227, 1349, 935, 838, 1403, 1622, 1092, 905, 1365, 1328, 928, 788, 1510, 1589, 1000, 914, 1278, 1239, 956, 1013, 1603, 1797, 1246, 925, 1182, 1236, 981, 906, 1462, 1769, 1299, 988, 978, 1006, 921, 875, 1247, 1440, 1102, 909, 949, 776, 868, 892, 1030, 1260, 900, 696, 892, 801, 736, 703, 1000, 1133, 818, 670, 847, 668, 628, 592, 967, 1135, 820, 720, 812, 737, 658, 605, 949, 1133, 818, 708, 822, 769, 681, 599, 1060, 1154, 858, 726, 889, 812, 718, 696, 872, 972, 763, 662, 809, 851, 713, 611, 811, 838, 812, 669, 684, 725, 683, 662, 810, 749, 695, 694, 699, 615, 635, 704, 787, 816, 638, 632, 690, 624, 567, 660, 623, 729, 629, 570, 611, 602, 595, 583, 647, 709, 645, 593, 668, 656, 646, 607, 721, 707, 618, 643, 621, 632, 587, 628, 839, 715, 711, 714, 659, 667, 608, 793, 876, 778, 611, 659, 672, 723, 628, 648, 811, 736, 527, 616, 719, 719, 645, 602, 761, 706, 627, 690, 775, 723, 688, 758, 653, 593, 703, 700, 669, 777, 686, 696, 634, 707, 659, 580, 607, 755, 686, 550, 609, 708, 685, 552, 552, 670, 695, 636, 657, 624, 627, 544, 618, 643, 629, 655, 647, 656, 604, 682, 683, 633, 721, 678, 531, 647, 688, 679, 573, 594, 683, 597, 611, 552, 629, 756, 684, 642, 658, 697, 739, 760, 718, 625, 714, 769, 758, 743, 957, 966, 901, 827, 858, 961, 956, 1006, 1031, 885, 807, 867, 926, 777, 842, 1080, 861, 818, 808, 797, 847, 770, 873, 1053, 691, 654, 752, 725, 679, 535, 851, 935, 613, 538, 671, 687, 614, 549, 655, 769, 626, 540, 738, 708, 613, 618, 622, 743, 656, 577, 664, 683, 656, 639, 508, 694, 699, 584, 600, 629, 579, 526, 525, 661, 641, 621, 667, 655, 492, 524, 699, 699, 652, 715, 764, 657, 525, 734, 737, 616, 685, 630, 736, 702, 642, 735, 657, 668, 721, 696, 680, 552, 589, 631, 551, 633, 649, 620, 647, 537, 467, 560, 691, 702, 611, 623, 641, 559, 519, 499, 717, 739, 796, 664, 637, 717, 750, 664, 750, 917, 979, 688, 653, 787, 903, 702, 676, 1049, 789, 595, 690, 755, 781, 686, 698, 926, 746, 612, 633, 653, 650, 668, 704, 841, 705, 697, 640, 642, 630, 662, 643, 701, 757, 707, 744, 711, 762, 774, 658, 805, 728, 666, 660, 672, 675, 728, 688, 779, 836, 863, 688, 586, 705, 785, 696, 689, 943, 929, 819, 658, 825, 952, 825, 845, 882, 895, 809, 710, 729, 905, 1028, 928, 693, 795, 780, 613, 653, 921, 945, 763, 691, 738, 802, 614, 587, 857, 872, 745, 767, 752, 784, 622, 629, 803, 756, 753, 684, 683, 602, 517, 530, 760, 671, 554, 759, 827, 806, 625, 728, 923, 1026, 909, 1022, 1111, 1243, 880, 831, 1506, 2112, 1888, 1198, 1515, 1626, 1064, 923, 1893, 3091, 2746, 1366, 1932, 1689, 954, 1161, 2099, 3068, 2603, 1379, 1474, 1314, 923, 1089, 1428, 1845, 1712, 1176, 922, 1003, 940, 894, 1112, 926, 1098, 1076, 762, 861, 1029, 885, 920, 782, 1021, 1012, 1041, 963, 1002, 963, 1019, 1042, 968, 1006, 1063, 1180, 962, 864, 1004, 1231, 1184, 875, 1322, 1647, 1175, 747, 1047, 1552, 1528, 1166, 1561, 1410, 937, 849, 1437, 1422, 980, 1129, 1303, 1112, 801, 839, 1180, 1180, 881, 955, 1104, 1139, 890, 930, 1140, 1035, 888, 779, 970, 1091, 898, 911, 1003, 899, 842, 791, 864, 835, 731, 783, 741, 653, 775, 851, 678, 770, 710, 643, 729, 662, 825, 696, 715, 786, 713, 552, 669, 752, 707, 545, 736, 758, 573, 519, 711, 766, 562, 604, 654, 584, 527, 546, 711, 768, 672, 704, 559, 564, 633, 561, 670, 852, 858, 682, 662, 769, 695, 534, 672, 834, 864]"
0.6707195043563843,-0.5310044288635254,0.03329005092382431,-0.4163115620613098,-0.765907883644104,-0.25784075260162354,-0.5482935905456543,-0.7468287944793701,1.2983322143554688,20.5,-0.35486865043640137,1.0685920715332031,23.0,-0.03429102897644043,0.7036685943603516,26.75,0.10747265815734863,0.4631996154785156,18.75,0.12978863716125488,0.38781166076660156,28.5,"[547, 653, 637, 626, 674, 626, 639, 652, 496, 616, 631, 622, 640, 642, 577, 581, 401, 526, 646, 633, 542, 569, 595, 523, 452, 534, 539, 551, 478, 539, 548, 501, 557, 503, 513, 578, 575, 577, 541, 511, 517, 487, 526, 563, 570, 560, 526, 493, 490, 456, 542, 540, 561, 507, 553, 621, 587, 484, 563, 534, 502, 491, 554, 651, 519, 376, 437, 519, 529, 560, 556, 574, 556, 504, 568, 506, 435, 531, 609, 617, 528, 505, 520, 531, 463, 532, 538, 556, 505, 562, 527, 476, 552, 548, 489, 495, 566, 540, 529, 560, 536, 494, 523, 562, 481, 484, 560, 618, 493, 451, 574, 540, 455, 452, 590, 610, 490, 482, 540, 542, 589, 580, 565, 509, 481, 546, 534, 605, 525, 576, 506, 463, 560, 539, 513, 509, 573, 593, 606, 564, 556, 587, 521, 531, 459, 505, 572, 603, 622, 501, 491, 486, 484, 577, 607, 546, 575, 628, 491, 455, 521, 538, 563, 518, 465, 568, 504, 418, 550, 506, 530, 529, 515, 566, 501, 493, 536, 549, 612, 563, 554, 600, 562, 592, 539, 552, 675, 638, 511, 538, 650, 629, 537, 520, 472, 541, 586, 571, 526, 507, 555, 534, 443, 503, 544, 549, 493, 478, 497, 514, 520, 558, 499, 500, 475, 486, 541, 522, 539, 688, 675, 584, 498, 496, 533, 475, 600, 653, 551, 505, 519, 564, 523, 534, 597, 542, 510, 552, 536, 543, 600, 562, 555, 619, 568, 499, 525, 572, 609, 643, 540, 598, 536, 510, 584, 607, 592, 546, 575, 593, 541, 478, 518, 630, 550, 596, 578, 495, 564, 539, 529, 538, 527, 588, 591, 494, 542, 561, 497, 551, 582, 603, 598, 492, 617, 630, 552, 539, 514, 568, 558, 501, 573, 643, 612, 554, 454, 507, 541, 506, 512, 565, 552, 499, 501, 510, 541, 527, 515, 582, 508, 457, 573, 547, 516, 502, 449, 472, 415, 455, 515, 508, 546, 571, 506, 413, 469, 496, 494, 582, 607, 597, 527, 573, 700, 632, 591, 525, 536, 606, 555, 574, 677, 658, 570, 534, 583, 585, 534, 585, 641, 613, 495, 531, 571, 573, 629, 626, 599, 592, 608, 605, 581, 542, 623, 662, 631, 620, 625, 543, 574, 574, 555, 575, 636, 662, 601, 607, 608, 629, 632, 660, 639, 662, 552, 572, 721, 608, 531, 597, 557, 616, 518, 545, 633, 619, 670, 615, 527, 597, 611, 537, 598, 669, 620, 549, 509, 637, 655, 687, 735, 712, 757, 606, 759, 845, 1661, 910, 1852, 2087, 1635, 916, 2970, 3382, 3239, 1385, 3208, 3782, 2890, 1499, 5890, 6689, 4408, 2340, 4441, 4218, 3283, 2689, 8010, 8919, 7089, 5044, 8245, 6570, 4776, 5345, 12347, 13439, 8160, 7075, 11413, 8199, 4993, 6973, 16184, 17129, 5739, 4434, 8146, 5914, 3316, 4067, 10975, 12169, 2699, 2218, 4546, 3509, 1606, 1764, 5307, 6007, 1210, 2397, 2920, 1855, 790, 2032, 3725, 3240, 1013, 1773, 1580, 848, 599, 1266, 1725, 1188, 839, 998, 915, 756, 619, 728, 756, 688, 525, 799, 843, 746, 653, 631, 792, 711, 589, 798, 845, 675, 562, 590, 855, 865, 574, 807, 802, 605, 554, 626, 800, 769, 635, 633, 709, 682, 614, 566, 631, 687, 647, 541, 609, 652, 593, 504, 659, 711, 668, 573, 584, 630, 649, 734, 618, 599, 703, 595, 700, 742, 683, 650, 591, 620, 673, 607, 714, 800, 708, 639, 567, 623, 627, 562, 576, 607, 707, 537, 546, 728, 720, 826, 982, 966, 818, 632, 918, 992, 1313, 2906, 3169, 1822, 719, 1059, 1457, 1131, 2199, 5735, 6264, 3394, 1035, 1546, 2623, 2075, 1529, 4861, 6029, 3747, 1122, 1692, 2286, 2208, 838, 1968, 3559, 2906, 891, 1615, 1835, 1711, 1147, 1145, 2223, 2227, 1131, 1294, 1590, 1368, 1101, 1244, 2132, 2034, 1191, 1156, 1236, 1287, 1071, 1200, 1734, 1654, 1122, 1106, 1022, 1010, 993, 1144, 1270, 1348, 1107, 962, 767, 787, 887, 861, 813, 881, 890, 888, 682, 746, 703, 606, 713, 653, 675, 693, 609, 747, 888, 797, 684, 564, 761, 886, 618, 709, 834, 794, 718, 616, 737, 800, 722, 772, 750, 673, 670, 698, 742, 699, 690, 749, 566, 636, 760, 722, 635, 698, 710, 652, 538, 556, 705, 671, 591, 627, 592, 553, 661, 694, 801, 755, 639, 668, 566, 530, 593, 604, 603, 593, 568, 536, 603, 624, 590, 501, 693, 706, 598, 629, 569, 676, 515, 500, 587, 636, 569, 552, 546, 552, 548, 527, 611, 601, 563, 536, 648, 660, 566, 614, 566, 573, 528, 456, 532, 590, 550, 531, 529, 591, 612, 547, 494, 544, 632, 600, 572, 586, 527, 517, 446, 506, 659, 641, 537, 572, 579, 555, 524, 506, 534, 539, 482, 517, 566, 508, 516, 557, 508, 518, 594, 632, 642, 585, 544, 609, 455, 579, 668, 578, 569, 685, 630, 488, 464, 625, 736, 568, 517, 653, 668, 533, 560, 657, 687, 593, 548, 584, 610, 621, 561, 660, 606, 509, 517, 616, 677, 566, 589, 626, 516, 493, 558, 632, 565, 516, 565, 543, 591, 618, 534, 530, 606, 582, 500, 478, 602, 617, 559, 562, 625, 652, 540, 594, 634, 580, 529, 464, 498, 568, 654, 697, 681, 673, 628, 582, 567, 577, 482, 530, 545, 600, 598, 532, 576, 546, 545, 546, 570, 651, 577, 495, 576, 621, 658, 613, 542, 638, 579, 501, 576, 635, 523, 596, 614, 621, 592, 634, 614, 551, 503, 551, 657, 574, 554, 554, 576, 580, 566, 639, 577, 556, 554, 631, 606, 566, 562, 639, 569, 498, 540, 564, 528, 479, 733, 685, 534, 594, 558, 638, 598, 560, 865, 771, 587, 624, 587, 692, 622, 703, 664, 677, 607, 518, 512, 572, 529, 483, 592, 742, 649, 567, 557, 682, 741, 646, 732, 705, 554, 563, 617, 699, 654, 633, 659, 522, 557, 597, 602, 640, 619, 635, 509, 463, 463, 521, 481, 490, 512, 542, 528, 464, 476, 501, 492, 473, 436, 525, 428, 446, 524, 570, 540, 461, 462, 499, 562, 454, 520, 610, 533, 433, 395, 506, 574, 462, 456, 536, 502, 413, 413, 479, 411, 399, 419, 428, 385, 441, 510, 443, 347, 383, 402, 381, 384, 417, 442, 407, 544, 456, 427, 445, 471, 506, 498, 525]"
0.6557793617248535,-0.4867106080055237,-0.03615361824631691,-0.3953234553337097,-0.5791333913803101,-0.27935492992401123,-0.4382554292678833,-0.17696607112884521,0.8893489837646484,21.5,-0.06424176692962646,0.7674694061279297,28.25,0.04805338382720947,0.5783557891845703,26.0,0.17794382572174072,0.1297473907470703,19.0,0.45732271671295166,-0.4122734069824219,18.0,"[456, 578, 586, 547, 631, 546, 589, 575, 524, 650, 569, 588, 669, 625, 654, 578, 602, 647, 615, 556, 565, 576, 582, 578, 497, 597, 639, 516, 527, 520, 511, 554, 516, 526, 531, 512, 541, 477, 446, 508, 571, 610, 570, 562, 547, 526, 500, 510, 436, 478, 524, 483, 451, 435, 491, 501, 427, 519, 536, 465, 505, 422, 501, 506, 435, 507, 532, 496, 458, 454, 484, 483, 384, 470, 529, 530, 469, 475, 530, 475, 455, 515, 531, 545, 523, 545, 538, 448, 410, 510, 598, 550, 481, 515, 642, 561, 546, 632, 630, 546, 476, 517, 518, 495, 576, 596, 641, 522, 497, 594, 678, 613, 452, 490, 502, 389, 406, 539, 661, 582, 507, 501, 470, 492, 496, 454, 525, 582, 495, 536, 514, 527, 510, 448, 410, 496, 515, 571, 606, 621, 543, 501, 561, 569, 441, 504, 568, 580, 558, 581, 551, 472, 537, 478, 435, 486, 522, 508, 469, 487, 593, 545, 537, 561, 564, 504, 472, 542, 589, 536, 497, 456, 556, 527, 578, 641, 572, 527, 495, 549, 606, 499, 590, 626, 505, 544, 544, 519, 490, 548, 663, 592, 498, 537, 602, 534, 486, 463, 516, 562, 628, 650, 570, 568, 656, 619, 558, 558, 599, 583, 610, 544, 569, 603, 619, 556, 527, 557, 551, 460, 548, 568, 551, 500, 585, 549, 549, 553, 654, 585, 523, 569, 568, 616, 613, 575, 621, 682, 578, 527, 573, 636, 640, 541, 566, 569, 505, 512, 667, 631, 599, 579, 565, 524, 525, 636, 527, 561, 574, 478, 484, 526, 523, 471, 414, 526, 525, 489, 508, 577, 545, 413, 553, 665, 594, 496, 594, 609, 521, 482, 582, 611, 573, 544, 544, 502, 523, 573, 493, 543, 595, 527, 448, 488, 572, 515, 513, 557, 545, 562, 502, 514, 611, 569, 485, 540, 579, 488, 480, 507, 590, 584, 516, 555, 551, 456, 485, 516, 579, 581, 541, 595, 638, 506, 503, 573, 591, 564, 583, 564, 708, 664, 610, 621, 609, 663, 569, 581, 581, 582, 546, 556, 551, 550, 638, 559, 508, 508, 626, 631, 515, 579, 512, 448, 478, 480, 520, 529, 466, 491, 520, 480, 520, 544, 551, 546, 532, 495, 586, 477, 464, 472, 538, 547, 522, 575, 571, 480, 536, 574, 590, 588, 548, 595, 575, 545, 628, 567, 515, 573, 582, 567, 597, 615, 646, 540, 510, 538, 535, 569, 489, 506, 582, 613, 575, 520, 572, 567, 838, 851, 1091, 1138, 760, 864, 1643, 1580, 1587, 1023, 1720, 2193, 1532, 1204, 3198, 3363, 943, 681, 1160, 1627, 1209, 775, 1495, 1580, 3362, 1982, 3903, 3184, 2110, 1952, 5745, 6578, 7009, 4276, 8071, 6257, 4447, 4461, 12669, 14171, 6714, 4421, 7948, 5714, 4266, 4778, 12362, 13633, 3397, 2302, 3879, 2838, 1880, 2642, 6073, 6597, 1661, 1217, 2283, 2125, 949, 1099, 1768, 2302, 1902, 4489, 6136, 3819, 901, 2134, 4639, 4786, 1726, 5009, 6343, 3543, 743, 2283, 5202, 5052, 790, 2830, 3381, 1739, 592, 1293, 2916, 2709, 707, 1223, 1385, 877, 600, 767, 1413, 1415, 608, 751, 740, 572, 510, 625, 787, 697, 608, 603, 592, 538, 515, 609, 635, 614, 604, 792, 756, 640, 541, 568, 751, 687, 702, 720, 660, 682, 640, 514, 554, 559, 664, 662, 601, 584, 615, 560, 498, 538, 629, 592, 578, 505, 596, 667, 620, 649, 746, 605, 791, 672, 633, 778, 707, 818, 671, 896, 1085, 809, 647, 763, 929, 945, 590, 922, 1152, 1036, 717, 781, 928, 817, 637, 622, 687, 772, 774, 655, 629, 580, 736, 1252, 1770, 1246, 559, 1049, 1005, 878, 1168, 1832, 2974, 2328, 755, 1785, 1658, 1352, 1346, 1157, 2241, 2132, 848, 1870, 1954, 1260, 1326, 1240, 1046, 1030, 957, 1366, 1116, 793, 1775, 1899, 1777, 1825, 1405, 1752, 1726, 1151, 2297, 2635, 2267, 1994, 1520, 2525, 2472, 1288, 1885, 2076, 1497, 1258, 1296, 2042, 1936, 1093, 1114, 1109, 938, 832, 850, 1159, 1148, 993, 793, 683, 784, 645, 649, 614, 788, 1009, 671, 689, 718, 614, 556, 638, 739, 732, 580, 687, 824, 785, 534, 645, 795, 661, 614, 668, 813, 753, 561, 606, 720, 732, 628, 708, 927, 765, 627, 748, 714, 717, 646, 745, 929, 855, 731, 819, 732, 651, 679, 641, 785, 850, 727, 711, 665, 695, 603, 580, 643, 735, 625, 524, 684, 753, 562, 621, 562, 631, 608, 641, 697, 638, 590, 622, 608, 607, 710, 684, 614, 598, 672, 687, 591, 598, 643, 681, 612, 587, 630, 623, 559, 580, 663, 615, 505, 525, 652, 585, 597, 714, 689, 554, 575, 651, 612, 582, 576, 662, 690, 561, 505, 620, 569, 596, 554, 591, 578, 568, 529, 519, 472, 542, 609, 627, 611, 555, 547, 552, 606, 614, 642, 672, 700, 579, 536, 616, 707, 729, 526, 545, 691, 618, 575, 580, 611, 541, 499, 580, 600, 531, 621, 590, 548, 514, 550, 549, 548, 554, 617, 640, 630, 591, 580, 570, 611, 606, 545, 625, 521, 567, 657, 590, 492, 534, 570, 590, 622, 503, 562, 578, 560, 547, 611, 664, 678, 574, 580, 620, 522, 580, 571, 596, 629, 538, 656, 683, 518, 571, 576, 632, 489, 567, 632, 569, 501, 550, 625, 597, 580, 600, 602, 547, 558, 607, 630, 616, 468, 477, 512, 540, 576, 569, 589, 538, 545, 636, 704, 573, 592, 650, 562, 541, 549, 631, 721, 632, 556, 610, 590, 524, 533, 608, 603, 615, 573, 518, 558, 500, 568, 554, 429, 522, 561, 562, 558, 536, 640, 540, 473, 511, 497, 514, 491, 580, 562, 521, 704, 673, 577, 618, 591, 568, 549, 613, 756, 711, 526, 530, 716, 676, 704, 651, 674, 777, 780, 641, 622, 613, 679, 656, 824, 915, 853, 685, 668, 746, 571, 621, 830, 782, 623, 664, 789, 726, 538, 530, 625, 571, 529, 654, 724, 615, 519, 493, 528, 486, 494, 635, 602, 547, 453, 534, 612, 527, 422, 535, 585, 509, 460, 463, 562, 531, 415, 452, 495, 480, 456, 454, 458, 471, 446, 433, 423, 434, 421, 421, 521, 438, 375, 458, 466, 451, 494, 463, 387, 427, 402, 461, 450, 457, 412, 517, 456, 427, 356, 391, 466, 386, 351, 422, 447, 452, 453, 385, 405, 332]"
0.6783919930458069,-0.4213932156562805,-0.1295562982559204,-0.27417004108428955,-0.38386672735214233,-0.32434743642807007,-0.21336787939071655,-0.2641105651855469,0.9156703948974609,15.5,-0.19845008850097656,0.9305477142333984,25.75,-0.1878643035888672,0.8714675903320312,28.25,0.10596275329589844,0.8590221405029297,16.5,0.22240638732910156,0.8255481719970703,15.5,"[656, 650, 582, 589, 648, 590, 584, 651, 541, 593, 614, 603, 693, 691, 680, 626, 516, 624, 674, 658, 717, 697, 666, 615, 544, 501, 560, 532, 594, 599, 530, 573, 509, 472, 474, 471, 486, 519, 497, 532, 514, 484, 472, 475, 471, 447, 492, 578, 530, 492, 485, 500, 580, 583, 478, 539, 540, 546, 518, 600, 579, 535, 565, 576, 472, 510, 566, 590, 570, 466, 520, 496, 513, 502, 522, 521, 512, 557, 572, 558, 536, 468, 541, 609, 607, 529, 601, 636, 529, 519, 550, 551, 617, 577, 610, 641, 419, 510, 563, 489, 501, 420, 459, 528, 571, 445, 505, 552, 548, 473, 469, 636, 488, 522, 586, 678, 627, 549, 661, 602, 538, 544, 543, 669, 681, 608, 597, 558, 567, 540, 559, 619, 525, 496, 466, 489, 536, 569, 628, 590, 520, 557, 534, 468, 567, 598, 576, 534, 585, 577, 567, 586, 525, 542, 485, 485, 536, 565, 537, 495, 646, 588, 511, 482, 502, 552, 610, 618, 648, 566, 561, 596, 603, 577, 620, 598, 575, 515, 521, 570, 591, 564, 555, 588, 577, 562, 576, 650, 555, 578, 563, 566, 684, 745, 731, 653, 533, 521, 501, 539, 646, 809, 717, 567, 576, 602, 561, 562, 568, 603, 577, 654, 593, 525, 590, 614, 560, 634, 561, 566, 530, 514, 608, 596, 606, 635, 665, 667, 492, 450, 627, 602, 600, 612, 650, 572, 459, 536, 582, 601, 674, 585, 548, 633, 563, 546, 559, 593, 647, 637, 562, 576, 541, 581, 548, 548, 532, 470, 493, 576, 501, 483, 519, 543, 542, 472, 497, 630, 586, 492, 516, 513, 540, 591, 502, 509, 622, 550, 541, 557, 540, 569, 536, 479, 488, 544, 570, 537, 617, 538, 520, 596, 602, 597, 584, 596, 559, 518, 511, 592, 611, 549, 549, 519, 605, 557, 549, 661, 521, 464, 478, 500, 576, 553, 553, 655, 569, 480, 598, 540, 525, 447, 554, 593, 529, 540, 538, 578, 547, 562, 549, 552, 568, 585, 532, 514, 482, 595, 592, 532, 541, 555, 531, 538, 533, 614, 594, 564, 565, 514, 536, 531, 543, 613, 591, 556, 492, 470, 521, 513, 663, 736, 617, 589, 631, 592, 541, 557, 595, 630, 503, 526, 636, 530, 481, 498, 535, 605, 562, 533, 523, 476, 507, 551, 474, 489, 541, 550, 503, 496, 598, 599, 594, 544, 641, 619, 512, 575, 651, 676, 947, 747, 938, 1090, 869, 759, 1368, 1409, 1475, 897, 1297, 1702, 1476, 1070, 2500, 2586, 1905, 1138, 2002, 2250, 1743, 1145, 2763, 3196, 5282, 3632, 6216, 5050, 3750, 3681, 9263, 10304, 7903, 4664, 8283, 7144, 5487, 4612, 12167, 14202, 5336, 3143, 4986, 4858, 3775, 2792, 6466, 8102, 2421, 2239, 3479, 2952, 1694, 1863, 3763, 4189, 1468, 3098, 4663, 3104, 993, 2574, 5325, 5082, 1319, 4437, 5476, 3261, 993, 2938, 5344, 4557, 2496, 5439, 6358, 3787, 1265, 3197, 5523, 4820, 2292, 4134, 4668, 2634, 1093, 2327, 4205, 3949, 1379, 1940, 2226, 1317, 842, 1229, 2371, 2416, 933, 1183, 1321, 809, 650, 1005, 1611, 1519, 647, 827, 921, 688, 566, 840, 1050, 881, 564, 626, 719, 617, 610, 679, 691, 664, 589, 725, 651, 569, 667, 734, 626, 561, 574, 573, 586, 628, 639, 636, 575, 544, 707, 616, 627, 716, 710, 712, 567, 597, 884, 654, 645, 720, 767, 839, 550, 697, 983, 885, 749, 786, 755, 862, 718, 707, 833, 925, 1026, 993, 699, 737, 840, 761, 732, 885, 1004, 905, 638, 593, 647, 683, 1263, 1884, 1627, 1010, 967, 1067, 1073, 800, 1329, 2584, 2378, 1232, 902, 1195, 1522, 1036, 778, 1588, 1505, 832, 761, 919, 1050, 845, 819, 1031, 1252, 1110, 986, 719, 1081, 1210, 745, 990, 1378, 1374, 879, 744, 1015, 966, 1378, 1351, 2067, 2322, 1591, 941, 712, 1270, 1518, 1554, 2034, 2133, 1663, 1077, 818, 1497, 965, 1120, 1106, 1053, 1164, 920, 982, 1064, 763, 1047, 981, 981, 795, 782, 1183, 1056, 778, 977, 976, 884, 736, 828, 962, 815, 802, 736, 576, 639, 607, 751, 697, 638, 887, 724, 692, 782, 753, 696, 747, 788, 767, 718, 926, 978, 753, 700, 786, 729, 635, 690, 842, 768, 629, 718, 775, 682, 564, 733, 758, 603, 698, 721, 683, 665, 623, 713, 704, 635, 670, 667, 604, 610, 580, 536, 635, 742, 616, 581, 611, 596, 661, 527, 563, 654, 628, 552, 465, 677, 611, 531, 604, 669, 589, 524, 521, 571, 629, 603, 683, 647, 597, 631, 695, 664, 491, 555, 615, 562, 594, 635, 561, 602, 560, 631, 607, 626, 694, 600, 645, 665, 510, 492, 632, 746, 689, 602, 617, 612, 615, 578, 602, 670, 585, 561, 625, 589, 620, 577, 562, 551, 552, 621, 617, 575, 467, 527, 580, 494, 551, 570, 507, 515, 632, 605, 707, 654, 614, 623, 570, 624, 605, 593, 654, 591, 564, 630, 598, 592, 721, 649, 697, 710, 685, 695, 658, 694, 700, 728, 797, 729, 740, 748, 722, 766, 630, 685, 744, 736, 728, 640, 685, 722, 507, 560, 614, 587, 649, 609, 549, 617, 479, 601, 614, 560, 581, 568, 528, 475, 547, 555, 529, 614, 672, 596, 632, 623, 586, 549, 503, 612, 736, 567, 607, 660, 569, 538, 689, 708, 745, 577, 650, 743, 572, 586, 656, 746, 739, 637, 676, 758, 615, 679, 618, 649, 647, 633, 692, 660, 504, 631, 633, 586, 570, 580, 595, 599, 537, 621, 679, 656, 579, 611, 582, 591, 574, 556, 630, 634, 587, 642, 594, 580, 625, 606, 600, 582, 555, 604, 787, 787, 798, 710, 824, 759, 526, 603, 784, 875, 662, 671, 665, 662, 607, 575, 540, 639, 661, 963, 1213, 839, 703, 614, 1271, 1376, 599, 780, 852, 688, 664, 745, 1145, 1066, 646, 611, 507, 452, 552, 718, 686, 570, 689, 558, 587, 634, 586, 596, 508, 645, 504, 494, 578, 504, 464, 463, 491, 510, 466, 537, 534, 499, 562, 573, 489, 519, 445, 522, 544, 507, 578, 520, 445, 466, 439, 426, 504, 538, 489, 482, 447, 461, 472, 478, 503, 495, 488, 486, 493, 509, 548, 549, 504, 512, 468, 471, 470, 522, 482, 468, 389, 446, 394, 383, 435, 500, 452, 466, 419, 443, 450, 455, 393, 391]"
0.5718945264816284,-0.4074615240097046,-0.07522712647914886,-0.5001567602157593,-0.3060652017593384,-0.1974436640739441,-0.46991491317749023,-0.603804349899292,1.1637210845947266,17.25,0.07869267463684082,0.4952430725097656,22.25,0.1888420581817627,0.5135536193847656,17.25,0.21115803718566895,0.5068302154541016,17.5,0.5418922901153564,0.5145549774169922,18.0,"[495, 585, 706, 668, 595, 666, 707, 586, 434, 558, 621, 641, 569, 713, 727, 497, 446, 525, 548, 560, 487, 568, 591, 505, 485, 596, 624, 551, 523, 498, 563, 550, 445, 465, 518, 479, 460, 515, 543, 521, 483, 407, 497, 428, 447, 523, 575, 594, 472, 506, 543, 436, 493, 516, 520, 508, 541, 456, 524, 526, 502, 556, 544, 584, 565, 519, 569, 520, 487, 542, 522, 551, 620, 617, 615, 518, 527, 605, 557, 594, 548, 661, 694, 561, 528, 550, 635, 682, 531, 651, 719, 591, 545, 589, 578, 600, 495, 540, 632, 550, 457, 469, 514, 535, 552, 630, 650, 612, 525, 573, 582, 591, 491, 539, 613, 558, 513, 557, 573, 571, 577, 527, 479, 490, 511, 566, 557, 575, 436, 448, 527, 498, 416, 520, 573, 499, 591, 546, 662, 616, 523, 591, 638, 674, 607, 489, 581, 640, 526, 540, 660, 715, 611, 585, 554, 631, 575, 588, 717, 682, 513, 572, 543, 525, 496, 602, 589, 508, 539, 565, 558, 562, 496, 551, 566, 492, 587, 545, 623, 579, 534, 617, 616, 542, 610, 608, 614, 518, 543, 525, 473, 571, 672, 679, 567, 516, 600, 590, 508, 545, 575, 695, 571, 518, 677, 669, 584, 457, 436, 520, 598, 562, 622, 596, 572, 512, 495, 463, 506, 537, 496, 413, 469, 550, 547, 560, 515, 510, 534, 507, 470, 470, 591, 603, 557, 520, 608, 598, 496, 487, 552, 522, 511, 461, 535, 453, 517, 584, 555, 444, 490, 515, 519, 508, 513, 597, 618, 448, 612, 642, 505, 491, 510, 587, 617, 566, 505, 641, 679, 622, 494, 509, 554, 692, 593, 503, 552, 632, 644, 546, 536, 637, 658, 564, 518, 753, 846, 642, 526, 456, 531, 517, 523, 577, 615, 613, 556, 545, 559, 526, 554, 558, 580, 573, 542, 604, 533, 490, 570, 504, 559, 558, 511, 536, 513, 454, 476, 565, 567, 508, 760, 616, 413, 521, 630, 550, 478, 621, 743, 720, 610, 613, 602, 556, 562, 673, 660, 716, 655, 608, 575, 632, 661, 650, 546, 546, 623, 640, 658, 604, 575, 605, 498, 475, 615, 614, 592, 575, 493, 531, 544, 491, 558, 582, 597, 583, 582, 620, 564, 495, 589, 664, 591, 573, 572, 625, 630, 595, 556, 592, 643, 735, 774, 686, 655, 626, 534, 695, 722, 649, 643, 697, 1098, 722, 1245, 1487, 1111, 826, 1918, 2030, 2201, 1025, 2242, 2752, 2031, 1287, 4018, 4397, 2258, 866, 2091, 2624, 2011, 1084, 3730, 4240, 1186, 1253, 1521, 1245, 843, 1283, 2299, 2214, 3532, 2432, 4173, 4259, 2789, 2823, 7911, 8254, 3886, 2892, 4788, 5021, 3377, 3056, 8115, 8450, 2925, 3867, 4835, 3803, 2504, 4080, 7345, 6685, 2679, 2942, 4057, 3089, 2032, 3122, 6021, 5826, 1629, 1369, 2449, 1998, 1312, 1386, 3207, 3512, 1740, 1553, 2875, 2152, 1112, 1179, 3150, 3658, 1182, 1558, 2355, 1725, 897, 1316, 2614, 2624, 854, 1366, 1655, 1220, 688, 1256, 2019, 1825, 786, 1546, 1710, 962, 704, 1136, 1871, 1624, 463, 785, 867, 559, 502, 673, 874, 729, 590, 660, 788, 722, 564, 624, 738, 734, 556, 583, 734, 684, 476, 558, 609, 625, 593, 611, 600, 583, 459, 535, 563, 594, 561, 556, 560, 543, 484, 485, 559, 549, 696, 721, 623, 613, 551, 622, 692, 656, 704, 689, 639, 578, 607, 742, 675, 590, 794, 843, 765, 722, 704, 836, 719, 621, 894, 1010, 1189, 1028, 689, 824, 785, 899, 805, 1269, 1453, 1032, 648, 618, 710, 814, 1410, 2094, 1822, 1185, 904, 848, 1224, 808, 4096, 5749, 4632, 3153, 1766, 3726, 4679, 2024, 6171, 8407, 6821, 5162, 2990, 6138, 7256, 2819, 3929, 5459, 4887, 3985, 2541, 4110, 4759, 2003, 1065, 1631, 1769, 1479, 1015, 1160, 1343, 1004, 1746, 1937, 1478, 1073, 1205, 1424, 1300, 1078, 1559, 1613, 1484, 1141, 1042, 1385, 1111, 965, 1024, 1002, 1251, 1054, 763, 954, 730, 879, 849, 632, 812, 799, 732, 881, 838, 909, 996, 801, 596, 689, 832, 1055, 818, 815, 852, 769, 676, 709, 692, 836, 787, 779, 757, 673, 670, 652, 582, 717, 710, 762, 644, 578, 687, 663, 615, 731, 659, 710, 752, 705, 632, 648, 677, 681, 638, 649, 648, 671, 699, 717, 649, 517, 546, 652, 624, 624, 714, 725, 557, 507, 580, 624, 663, 602, 614, 653, 525, 521, 669, 703, 615, 577, 557, 573, 551, 572, 636, 646, 617, 580, 663, 609, 514, 516, 601, 653, 595, 518, 621, 615, 633, 550, 555, 698, 570, 470, 546, 649, 632, 509, 494, 611, 587, 550, 508, 546, 591, 579, 532, 547, 561, 589, 541, 543, 619, 596, 553, 548, 674, 671, 537, 533, 595, 654, 604, 592, 614, 495, 588, 535, 603, 627, 608, 653, 601, 468, 519, 566, 569, 548, 546, 644, 625, 555, 568, 503, 539, 548, 533, 644, 600, 668, 669, 635, 602, 635, 643, 563, 576, 587, 580, 609, 568, 585, 659, 581, 592, 569, 550, 631, 612, 559, 609, 547, 643, 723, 626, 604, 661, 651, 638, 532, 722, 834, 775, 707, 822, 726, 710, 704, 675, 758, 766, 742, 706, 634, 638, 647, 632, 645, 640, 782, 731, 545, 727, 760, 705, 741, 547, 577, 652, 628, 629, 623, 589, 552, 606, 639, 600, 602, 575, 566, 605, 538, 619, 592, 592, 549, 508, 628, 736, 585, 599, 664, 608, 577, 629, 774, 622, 542, 546, 588, 626, 591, 681, 669, 498, 535, 589, 523, 504, 520, 591, 636, 545, 572, 626, 537, 496, 553, 643, 573, 722, 722, 620, 641, 652, 672, 694, 692, 828, 809, 868, 750, 718, 653, 795, 963, 839, 908, 1154, 889, 805, 669, 1258, 1430, 754, 889, 1089, 858, 715, 762, 1381, 1416, 627, 739, 749, 729, 645, 687, 875, 829, 469, 557, 647, 566, 504, 506, 621, 642, 568, 656, 718, 553, 522, 520, 669, 732, 450, 481, 539, 481, 446, 481, 529, 522, 465, 460, 508, 520, 485, 539, 531, 418, 599, 594, 534, 500, 555, 603, 491, 459, 442, 462, 482, 443, 445, 434, 444, 412, 368, 437, 483, 421, 387, 369, 439, 468, 411, 489, 540, 489, 407, 450, 485, 438, 438, 461, 453, 416, 429, 474, 416, 410, 366, 409, 452, 496, 421, 434, 442, 392]"
0.6516422629356384,-0.36996617913246155,-0.26457953453063965,-0.19727399945259094,-0.19665133953094482,-0.40302205085754395,-0.01324164867401123,-1.169525146484375,1.3538360595703125,18.75,-0.4501209259033203,1.0863304138183594,22.75,-0.30835723876953125,1.1349678039550781,-28.25,-0.24798965454101562,1.0585784912109375,26.25,0.49616241455078125,2.021026611328125,17.25,"[506, 662, 714, 579, 513, 579, 721, 663, 590, 583, 583, 643, 636, 679, 731, 681, 534, 545, 580, 505, 592, 624, 570, 543, 506, 604, 624, 534, 587, 571, 551, 614, 476, 470, 456, 564, 557, 466, 424, 434, 602, 574, 517, 617, 646, 584, 496, 537, 633, 615, 527, 546, 568, 571, 517, 522, 579, 543, 488, 509, 572, 489, 456, 519, 534, 517, 492, 503, 544, 486, 423, 489, 586, 607, 545, 560, 562, 539, 510, 530, 611, 568, 530, 514, 551, 520, 579, 556, 552, 534, 567, 507, 577, 559, 518, 526, 504, 498, 555, 510, 459, 492, 429, 498, 554, 587, 526, 546, 566, 550, 493, 563, 490, 514, 496, 539, 639, 538, 518, 588, 479, 492, 567, 526, 528, 484, 532, 568, 497, 485, 489, 497, 503, 517, 503, 485, 546, 526, 553, 604, 617, 558, 561, 584, 619, 533, 510, 510, 622, 627, 543, 622, 487, 639, 677, 507, 599, 674, 653, 538, 514, 546, 485, 487, 574, 627, 534, 401, 622, 601, 517, 566, 558, 548, 546, 565, 578, 556, 569, 515, 497, 550, 523, 547, 551, 606, 584, 547, 504, 462, 472, 480, 542, 546, 579, 602, 570, 551, 567, 589, 524, 622, 630, 588, 606, 564, 614, 605, 558, 641, 535, 582, 650, 624, 587, 527, 581, 569, 506, 489, 554, 637, 533, 515, 526, 492, 571, 561, 477, 547, 522, 507, 497, 481, 557, 562, 527, 546, 518, 507, 557, 500, 590, 648, 611, 572, 636, 612, 570, 583, 467, 544, 522, 523, 530, 506, 536, 542, 480, 508, 500, 510, 513, 482, 514, 591, 622, 565, 514, 558, 650, 603, 519, 451, 545, 558, 580, 441, 490, 617, 521, 546, 597, 547, 587, 570, 523, 578, 509, 706, 695, 535, 610, 730, 605, 485, 482, 659, 650, 503, 550, 585, 577, 500, 576, 516, 595, 514, 502, 554, 586, 607, 528, 540, 558, 454, 465, 549, 533, 536, 494, 548, 531, 569, 616, 498, 446, 575, 611, 522, 451, 603, 580, 458, 536, 621, 592, 591, 580, 578, 579, 612, 625, 558, 502, 581, 535, 526, 636, 647, 660, 586, 549, 641, 596, 528, 563, 633, 641, 586, 578, 655, 665, 594, 620, 632, 621, 639, 583, 471, 475, 614, 667, 566, 499, 618, 741, 705, 851, 982, 797, 950, 1319, 1241, 2242, 1217, 2317, 2998, 2018, 1713, 4629, 4859, 3664, 1682, 3721, 4800, 3315, 2095, 7156, 7800, 5140, 4935, 7213, 6690, 4285, 5654, 11874, 11588, 13115, 13246, 20167, 15545, 9343, 15017, 34885, 34322, 22818, 16316, 29114, 23900, 16486, 18373, 51376, 53997, 16605, 9826, 19448, 17140, 12425, 10966, 33581, 36630, 5134, 3691, 6720, 6458, 4238, 4250, 10491, 11021, 1046, 1898, 2285, 1984, 1189, 1908, 2692, 2169, 1433, 1019, 1524, 1382, 946, 990, 1192, 1730, 1810, 1413, 2736, 2183, 1269, 1065, 2778, 3320, 1568, 2431, 3648, 2530, 1134, 1601, 3694, 3805, 949, 1882, 2437, 1651, 830, 1316, 2161, 1976, 698, 876, 1043, 805, 605, 867, 1188, 1091, 647, 948, 1054, 792, 587, 794, 1032, 965, 609, 679, 671, 599, 480, 674, 783, 667, 607, 682, 802, 700, 514, 559, 807, 774, 555, 658, 712, 731, 565, 555, 686, 612, 669, 563, 609, 750, 685, 576, 658, 698, 732, 583, 725, 781, 651, 584, 716, 713, 614, 641, 778, 712, 602, 675, 759, 659, 643, 799, 812, 740, 600, 646, 774, 692, 764, 905, 897, 785, 636, 759, 852, 815, 773, 1093, 1279, 1011, 652, 790, 911, 817, 1136, 2740, 3301, 1960, 859, 1554, 1203, 1063, 2513, 5031, 4842, 2068, 1475, 2306, 2130, 1332, 3516, 5422, 4250, 2438, 1885, 2403, 3047, 1514, 1978, 2722, 3074, 2596, 1471, 1738, 2118, 1444, 2329, 1855, 2973, 3450, 3085, 2148, 1790, 2684, 3417, 3397, 4667, 5255, 4373, 2907, 2993, 3792, 2048, 2098, 3318, 3866, 2986, 1894, 2426, 2615, 980, 1252, 1483, 1735, 1313, 1195, 1763, 1323, 763, 1154, 1233, 1067, 804, 946, 1351, 1144, 750, 890, 1036, 964, 800, 860, 1143, 1040, 700, 659, 839, 800, 744, 823, 921, 882, 675, 582, 615, 669, 672, 730, 735, 709, 671, 852, 837, 711, 656, 665, 722, 637, 700, 839, 844, 783, 733, 618, 666, 658, 669, 789, 886, 798, 591, 633, 761, 715, 641, 845, 870, 710, 618, 732, 863, 814, 601, 768, 718, 696, 683, 625, 694, 674, 583, 639, 689, 686, 600, 560, 627, 646, 559, 662, 762, 662, 597, 687, 706, 638, 645, 648, 582, 568, 610, 578, 491, 583, 665, 600, 506, 592, 671, 624, 572, 591, 570, 508, 531, 623, 715, 632, 545, 582, 668, 527, 507, 663, 687, 567, 545, 641, 643, 615, 624, 617, 610, 572, 538, 651, 701, 658, 751, 660, 760, 689, 534, 686, 599, 706, 779, 749, 775, 759, 706, 780, 702, 767, 737, 687, 735, 673, 618, 657, 624, 587, 571, 681, 696, 666, 702, 631, 688, 668, 579, 724, 707, 669, 722, 660, 759, 696, 656, 707, 611, 628, 584, 655, 690, 605, 651, 655, 595, 647, 589, 630, 614, 488, 535, 723, 654, 606, 694, 660, 536, 480, 585, 704, 650, 569, 618, 624, 631, 544, 593, 681, 671, 579, 644, 695, 654, 593, 727, 731, 665, 638, 769, 799, 638, 545, 636, 713, 685, 666, 745, 783, 694, 568, 564, 655, 647, 606, 579, 719, 766, 634, 596, 669, 723, 595, 596, 760, 700, 604, 697, 764, 781, 676, 628, 795, 605, 574, 646, 680, 607, 591, 620, 715, 713, 530, 623, 762, 749, 767, 779, 742, 658, 513, 709, 756, 540, 680, 833, 766, 815, 580, 900, 922, 612, 684, 855, 1052, 630, 585, 715, 642, 555, 625, 792, 812, 636, 632, 738, 630, 534, 546, 726, 820, 667, 618, 668, 602, 490, 517, 639, 707, 628, 1007, 1020, 699, 521, 719, 1002, 813, 553, 1230, 1397, 902, 561, 874, 1388, 1218, 481, 872, 987, 683, 462, 757, 1105, 946, 460, 485, 511, 520, 507, 501, 688, 669, 424, 478, 573, 555, 569, 549, 501, 479, 485, 468, 521, 569, 440, 503, 504, 493, 436, 418, 431, 403, 437, 476, 459, 438, 436, 402, 412, 435, 412, 407, 454, 472, 399, 362, 510, 499, 411, 391, 419, 469, 373, 488, 513, 448, 407, 414, 439, 368, 442, 425, 428, 403, 399, 418, 478, 484]"
0.6934317350387573,-0.277878075838089,-0.439016193151474,-0.03235764801502228,-0.03293752670288086,-0.5677498579025269,0.20887316763401031,-0.2825237512588501,1.0444164276123047,25.5,-0.15535128116607666,0.8750438690185547,22.75,-0.06665956974029541,0.8644580841064453,20.0,0.2965472936630249,0.31256675720214844,18.5,0.48594701290130615,0.49996376037597656,18.5,"[420, 455, 523, 571, 562, 565, 519, 455, 526, 474, 510, 610, 640, 584, 582, 529, 565, 466, 506, 563, 521, 497, 529, 569, 557, 571, 453, 498, 509, 475, 519, 481, 486, 484, 451, 556, 537, 450, 488, 488, 497, 445, 488, 483, 472, 447, 524, 535, 600, 575, 503, 465, 443, 506, 492, 514, 509, 522, 574, 560, 526, 512, 507, 551, 392, 435, 545, 574, 515, 455, 529, 504, 561, 484, 543, 547, 511, 544, 535, 586, 517, 422, 537, 553, 432, 451, 496, 628, 510, 500, 514, 496, 478, 500, 560, 556, 507, 503, 534, 572, 491, 460, 462, 509, 588, 523, 538, 597, 580, 582, 539, 520, 580, 475, 540, 594, 545, 618, 621, 587, 523, 499, 472, 496, 516, 535, 617, 617, 492, 487, 465, 531, 539, 488, 526, 572, 471, 428, 534, 600, 518, 437, 477, 532, 520, 511, 656, 599, 478, 576, 572, 560, 612, 551, 573, 536, 566, 557, 561, 621, 514, 524, 537, 509, 485, 462, 490, 490, 552, 580, 603, 511, 463, 553, 568, 502, 568, 568, 592, 535, 476, 609, 624, 589, 563, 571, 625, 667, 546, 594, 720, 658, 555, 561, 489, 501, 543, 533, 635, 622, 550, 593, 581, 576, 581, 579, 651, 580, 562, 494, 540, 582, 493, 501, 569, 530, 538, 551, 625, 593, 508, 561, 640, 628, 527, 523, 562, 557, 470, 496, 570, 546, 607, 617, 554, 579, 570, 601, 573, 531, 587, 602, 590, 575, 601, 572, 573, 588, 600, 570, 588, 585, 499, 496, 575, 575, 446, 525, 603, 558, 502, 571, 644, 533, 515, 501, 588, 681, 626, 587, 680, 619, 514, 496, 492, 586, 559, 573, 573, 571, 632, 526, 558, 544, 539, 586, 574, 579, 689, 611, 585, 588, 632, 668, 598, 633, 464, 493, 608, 525, 536, 564, 581, 538, 450, 464, 600, 536, 469, 557, 551, 512, 520, 567, 622, 675, 587, 559, 632, 518, 634, 580, 580, 620, 694, 700, 659, 589, 676, 613, 524, 658, 682, 576, 602, 669, 613, 538, 485, 581, 608, 564, 595, 598, 563, 540, 531, 506, 469, 533, 628, 629, 608, 586, 606, 635, 604, 640, 662, 555, 609, 625, 691, 696, 573, 645, 662, 593, 817, 707, 858, 915, 782, 772, 1046, 1065, 1073, 744, 1249, 1399, 896, 1048, 2287, 2281, 1091, 782, 1018, 1036, 917, 833, 1616, 1676, 2751, 2785, 3939, 2579, 1689, 2729, 5747, 5818, 5102, 4372, 7391, 5022, 2928, 3982, 10196, 11073, 4561, 2971, 5785, 4572, 2759, 2652, 7826, 9061, 2373, 1624, 2514, 2235, 1595, 1836, 3785, 4094, 2038, 1772, 2587, 2165, 1491, 2105, 4317, 4442, 2647, 2432, 3876, 2831, 1767, 2311, 5969, 6238, 2240, 2468, 3739, 2640, 1415, 2169, 5225, 5434, 1664, 1609, 2520, 1803, 978, 1542, 3337, 3533, 1503, 2089, 2729, 1841, 1008, 1547, 2954, 2865, 937, 2317, 3077, 2051, 961, 1515, 2403, 2308, 698, 1480, 1808, 1231, 660, 909, 1236, 1203, 713, 821, 723, 626, 571, 584, 733, 636, 712, 791, 890, 792, 567, 658, 719, 687, 547, 702, 880, 652, 511, 679, 775, 678, 607, 765, 776, 591, 585, 690, 693, 629, 530, 667, 733, 594, 494, 547, 584, 665, 771, 746, 647, 678, 658, 634, 670, 724, 789, 654, 696, 862, 771, 824, 786, 713, 589, 589, 659, 640, 609, 661, 628, 621, 618, 621, 746, 613, 562, 609, 651, 698, 659, 862, 974, 706, 561, 709, 841, 760, 975, 1316, 1334, 1150, 862, 1108, 1187, 904, 2726, 3721, 2733, 1953, 1630, 2625, 3040, 1475, 4516, 5998, 4613, 3428, 2559, 4083, 4726, 2219, 3668, 4747, 3837, 3217, 2559, 3222, 3615, 2156, 1955, 2332, 1895, 1954, 1735, 1691, 1748, 1490, 988, 1339, 1451, 1589, 1226, 1082, 1343, 1049, 1104, 1327, 1355, 1265, 955, 1005, 1272, 1050, 1257, 935, 1151, 1114, 899, 987, 1019, 1240, 1002, 1041, 1075, 842, 885, 970, 935, 1046, 800, 961, 1045, 897, 837, 837, 849, 917, 757, 843, 841, 787, 727, 745, 766, 803, 742, 763, 707, 636, 558, 710, 801, 794, 764, 823, 860, 795, 737, 724, 781, 793, 767, 671, 822, 762, 755, 788, 677, 715, 778, 678, 731, 726, 578, 557, 681, 823, 754, 793, 844, 792, 598, 590, 821, 824, 669, 761, 752, 746, 646, 620, 768, 740, 611, 730, 758, 680, 565, 636, 735, 681, 661, 680, 625, 630, 562, 630, 679, 668, 669, 666, 553, 597, 622, 643, 562, 576, 716, 612, 630, 834, 713, 565, 679, 680, 726, 572, 643, 789, 713, 527, 525, 698, 728, 700, 580, 656, 718, 638, 533, 678, 720, 669, 588, 626, 703, 652, 604, 643, 612, 624, 598, 568, 560, 544, 627, 647, 462, 521, 635, 579, 552, 546, 623, 638, 570, 549, 568, 522, 545, 576, 447, 542, 577, 513, 496, 519, 500, 500, 480, 544, 807, 664, 595, 650, 688, 561, 568, 765, 724, 649, 600, 808, 718, 494, 610, 652, 586, 557, 600, 741, 683, 502, 564, 621, 680, 750, 719, 690, 750, 596, 665, 807, 715, 699, 697, 655, 674, 589, 664, 776, 733, 665, 602, 667, 690, 619, 591, 724, 680, 709, 578, 529, 560, 665, 604, 582, 620, 740, 665, 639, 655, 687, 626, 555, 710, 632, 680, 637, 676, 662, 612, 627, 774, 600, 630, 734, 729, 666, 544, 691, 617, 639, 598, 603, 638, 647, 632, 656, 724, 671, 731, 641, 615, 745, 727, 711, 671, 716, 727, 630, 587, 649, 604, 594, 602, 1043, 1158, 837, 549, 680, 903, 761, 626, 1078, 1221, 851, 570, 755, 1103, 949, 579, 874, 957, 718, 593, 776, 1012, 867, 591, 692, 744, 640, 649, 700, 770, 753, 660, 554, 709, 719, 742, 558, 723, 840, 605, 669, 777, 666, 588, 678, 788, 822, 742, 870, 1099, 868, 645, 769, 1147, 1186, 778, 873, 1139, 786, 597, 798, 1204, 1287, 618, 779, 917, 695, 515, 676, 867, 879, 531, 534, 680, 648, 514, 575, 719, 660, 522, 545, 647, 631, 522, 561, 742, 713, 542, 443, 578, 665, 600, 508, 650, 719, 475, 390, 460, 516, 527, 426, 418, 551, 430, 337, 440, 519, 392, 351, 479, 511, 446, 374, 381, 472, 402, 401, 480, 490, 491, 425, 469, 559, 467, 379, 512, 560, 438, 471, 492, 459, 485, 489, 501, 472]"
0.770308792591095,-0.40928614139556885,-0.6576086282730103,0.17146961390972137,-0.3051924705505371,-0.8773897290229797,0.3846343755722046,-0.7163290977478027,1.2386798858642578,19.25,-0.6944422721862793,1.2229442596435547,21.25,-0.29075193405151367,1.0085105895996094,17.75,-0.25513219833374023,1.1093616485595703,23.75,-0.21736669540405273,1.0754585266113281,15.5,"[534, 563, 600, 583, 576, 582, 599, 564, 574, 561, 596, 597, 582, 633, 687, 698, 605, 572, 577, 580, 567, 565, 601, 569, 470, 470, 451, 499, 465, 524, 531, 447, 476, 548, 463, 494, 531, 548, 516, 489, 483, 479, 484, 532, 516, 513, 532, 554, 548, 570, 542, 547, 539, 493, 474, 535, 573, 591, 539, 494, 492, 590, 517, 422, 576, 548, 578, 545, 515, 577, 636, 621, 537, 546, 533, 559, 508, 528, 583, 567, 490, 524, 508, 458, 462, 497, 538, 502, 560, 547, 523, 537, 566, 575, 557, 601, 460, 546, 541, 490, 471, 511, 585, 561, 480, 566, 597, 526, 521, 615, 627, 517, 579, 556, 645, 529, 541, 525, 494, 622, 579, 552, 624, 578, 506, 510, 576, 616, 578, 622, 601, 553, 550, 597, 531, 478, 643, 694, 545, 575, 694, 596, 525, 502, 595, 567, 560, 596, 578, 508, 520, 612, 562, 624, 642, 505, 476, 589, 557, 564, 553, 568, 656, 628, 578, 611, 637, 622, 531, 536, 534, 569, 575, 515, 529, 496, 560, 571, 524, 542, 582, 554, 501, 422, 595, 577, 629, 651, 526, 504, 501, 554, 558, 514, 523, 529, 485, 466, 500, 584, 506, 531, 528, 515, 574, 563, 505, 513, 481, 554, 495, 532, 666, 623, 548, 452, 489, 477, 525, 536, 613, 642, 607, 572, 541, 493, 528, 495, 487, 552, 516, 576, 551, 533, 570, 590, 484, 488, 518, 573, 494, 491, 490, 475, 487, 483, 496, 552, 532, 537, 545, 534, 533, 484, 494, 516, 551, 544, 503, 495, 528, 441, 455, 535, 533, 523, 501, 439, 480, 499, 483, 498, 496, 506, 602, 566, 518, 575, 513, 520, 570, 510, 500, 502, 579, 542, 521, 571, 600, 576, 575, 583, 567, 544, 585, 596, 506, 528, 663, 654, 507, 632, 681, 578, 563, 637, 668, 611, 490, 526, 618, 590, 538, 529, 536, 541, 493, 492, 532, 420, 532, 477, 584, 609, 529, 544, 568, 527, 623, 663, 674, 656, 641, 629, 654, 618, 673, 1123, 1089, 1075, 706, 1123, 1792, 1528, 1354, 1827, 2397, 2382, 1402, 2094, 4238, 3881, 2190, 2319, 3384, 3443, 1904, 2914, 6350, 5980, 1816, 1905, 2844, 2793, 1604, 2339, 5156, 4937, 1203, 1611, 2146, 1759, 1013, 1895, 3519, 3154, 4546, 4959, 6915, 5033, 3173, 5469, 11396, 10996, 12738, 11233, 17346, 13426, 8897, 12232, 28760, 29332, 13602, 11747, 18830, 15598, 10063, 12823, 31441, 32150, 5673, 5585, 8477, 8011, 4894, 6379, 14703, 14412, 1463, 1524, 1941, 2241, 1500, 1793, 3059, 2623, 1127, 740, 1375, 1366, 891, 767, 1313, 1529, 2060, 1532, 3169, 2683, 1275, 1261, 3285, 3871, 2292, 2310, 4120, 3146, 1409, 1926, 4589, 5004, 1828, 3021, 4198, 2723, 1076, 2268, 4713, 4610, 1522, 4110, 5325, 3023, 864, 2588, 5656, 5321, 1346, 4270, 5212, 2802, 772, 2652, 5420, 4940, 1060, 3021, 3425, 1737, 775, 1879, 3464, 3035, 737, 1811, 2230, 1329, 595, 1297, 2107, 1888, 613, 1233, 1546, 1062, 562, 932, 1503, 1384, 669, 849, 991, 818, 635, 728, 1161, 1127, 840, 887, 1008, 977, 763, 756, 990, 1060, 906, 894, 959, 956, 830, 821, 855, 951, 694, 845, 873, 723, 629, 764, 880, 829, 604, 912, 851, 576, 619, 854, 973, 745, 622, 756, 702, 563, 572, 720, 750, 651, 729, 684, 645, 610, 652, 713, 690, 716, 574, 761, 755, 625, 612, 783, 740, 569, 1251, 2012, 1755, 988, 795, 1034, 1285, 891, 3661, 4877, 3840, 2579, 2141, 2817, 3113, 1862, 4804, 5842, 5068, 4417, 3156, 4108, 4254, 2750, 3765, 4232, 4652, 4158, 2714, 3755, 3282, 2849, 2780, 3458, 4141, 3183, 1926, 2769, 2175, 2448, 2185, 2542, 2892, 2188, 1378, 1999, 1811, 1611, 1556, 1757, 2097, 1578, 1082, 1383, 1359, 1335, 1094, 1428, 1502, 1020, 781, 1180, 1252, 1043, 1028, 1242, 1228, 960, 1018, 1116, 1011, 949, 1248, 1760, 1527, 899, 1087, 1051, 1146, 961, 1222, 1642, 1464, 818, 833, 995, 1171, 1025, 855, 1164, 1163, 812, 852, 896, 866, 871, 834, 1141, 1184, 851, 841, 840, 907, 819, 744, 1002, 941, 661, 811, 844, 785, 697, 683, 867, 901, 752, 802, 814, 851, 801, 706, 815, 885, 750, 665, 715, 874, 884, 639, 665, 816, 787, 660, 709, 880, 840, 671, 712, 737, 732, 605, 667, 724, 630, 745, 737, 678, 628, 716, 670, 577, 678, 727, 782, 763, 644, 656, 656, 642, 679, 729, 749, 674, 612, 621, 649, 598, 627, 708, 661, 691, 704, 663, 676, 642, 658, 738, 644, 742, 736, 695, 632, 698, 718, 686, 678, 739, 731, 656, 635, 715, 798, 675, 533, 694, 804, 752, 628, 758, 893, 775, 634, 684, 723, 750, 618, 676, 848, 879, 630, 675, 710, 667, 682, 657, 864, 622, 486, 583, 595, 617, 591, 608, 732, 674, 573, 684, 728, 767, 630, 564, 757, 701, 588, 687, 816, 768, 553, 587, 720, 717, 682, 734, 894, 928, 693, 543, 708, 742, 670, 657, 790, 917, 680, 589, 750, 770, 664, 710, 783, 807, 640, 626, 821, 885, 686, 696, 740, 751, 715, 761, 934, 1013, 679, 851, 895, 816, 749, 1009, 1293, 1175, 659, 1042, 1248, 949, 792, 1449, 1689, 1135, 722, 1257, 1574, 1042, 966, 2100, 2166, 1113, 853, 830, 968, 908, 926, 1242, 1382, 1301, 931, 710, 968, 1133, 891, 849, 1235, 1320, 1008, 711, 936, 1128, 985, 861, 1226, 1270, 939, 786, 942, 1212, 1001, 934, 1280, 1031, 813, 744, 978, 1108, 826, 664, 999, 745, 618, 656, 840, 858, 685, 800, 841, 770, 699, 752, 866, 828, 685, 826, 808, 797, 647, 788, 870, 738, 655, 964, 1015, 831, 609, 701, 723, 654, 655, 991, 1053, 683, 772, 850, 659, 620, 796, 971, 905, 679, 666, 809, 693, 588, 672, 742, 792, 562, 566, 700, 700, 628, 576, 620, 669, 584, 542, 694, 709, 611, 530, 601, 668, 516, 569, 669, 719, 574, 589, 776, 666, 628, 585, 660, 737, 615, 612, 780, 681, 558, 537, 596, 546, 488, 462, 525, 584, 509, 536, 489, 463, 472, 544, 630, 550, 425, 502, 515, 457, 455, 490, 628, 532, 468, 509, 523, 514, 468, 460, 476, 442, 506, 576, 553, 477, 422, 474, 512, 456, 538, 536, 425, 468, 472, 459, 429, 419, 544, 503, 484, 471, 383, 366, 456, 475]"
