posz,velx,vely,velz,accx,accy,accz,p1x,p1y,p1z,p2x,p2y,p2z,p3x,p3y,p3z,p4x,p4y,p4z,p5x,p5y,p5z,heatmap
0.5719082951545715,0.2757450044155121,-0.30139976739883423,0.8625454306602478,-0.09332585334777832,-0.6235156059265137,0.7539445161819458,-0.014743566513061523,0.5796432495117188,19.75,0.01758599281311035,0.39925575256347656,20.0,0.10584855079650879,0.47135353088378906,20.25,0.12301468849182129,-0.112152099609375,15.25,0.43114686012268066,-0.21457672119140625,15.25,"[502, 597, 671, 596, 550, 591, 676, 596, 536, 574, 675, 662, 613, 638, 778, 691, 460, 516, 591, 552, 493, 549, 545, 542, 475, 442, 520, 476, 453, 531, 532, 514, 423, 424, 480, 540, 502, 466, 513, 463, 531, 488, 437, 567, 574, 530, 489, 547, 600, 581, 465, 450, 545, 545, 445, 508, 511, 484, 517, 490, 495, 511, 472, 486, 491, 490, 470, 498, 458, 466, 498, 478, 445, 513, 531, 454, 495, 490, 503, 491, 607, 514, 514, 502, 533, 501, 474, 546, 597, 501, 570, 580, 567, 608, 587, 601, 396, 381, 473, 424, 469, 494, 511, 467, 411, 418, 516, 562, 515, 515, 544, 519, 531, 417, 497, 604, 546, 501, 539, 545, 573, 432, 541, 583, 468, 437, 486, 539, 569, 524, 498, 484, 453, 464, 510, 564, 537, 534, 566, 550, 537, 499, 519, 512, 475, 502, 605, 579, 483, 446, 545, 565, 533, 599, 582, 529, 627, 576, 499, 535, 535, 573, 490, 540, 606, 548, 514, 541, 575, 566, 613, 604, 533, 487, 543, 579, 659, 563, 661, 684, 623, 631, 653, 681, 480, 551, 670, 576, 451, 584, 699, 604, 558, 832, 777, 499, 514, 643, 733, 488, 1078, 1505, 1215, 740, 717, 892, 971, 749, 1414, 1884, 1392, 775, 819, 1008, 1210, 905, 913, 1143, 822, 660, 707, 850, 951, 707, 579, 653, 632, 701, 664, 637, 720, 601, 720, 715, 603, 630, 575, 647, 715, 606, 555, 599, 515, 459, 504, 695, 672, 479, 500, 565, 554, 557, 574, 766, 810, 642, 468, 570, 628, 567, 576, 633, 678, 565, 545, 555, 645, 682, 666, 595, 621, 593, 602, 568, 550, 614, 689, 641, 630, 669, 519, 666, 606, 509, 646, 661, 641, 565, 571, 678, 636, 473, 506, 597, 605, 531, 679, 692, 636, 628, 577, 592, 680, 559, 620, 579, 536, 639, 591, 545, 607, 551, 572, 536, 488, 536, 558, 600, 514, 518, 566, 460, 556, 514, 571, 512, 565, 635, 573, 553, 599, 557, 561, 512, 620, 654, 606, 559, 542, 598, 579, 480, 660, 657, 591, 583, 507, 520, 507, 561, 678, 608, 592, 664, 630, 580, 563, 658, 698, 627, 562, 923, 1100, 786, 562, 719, 994, 945, 928, 1428, 1711, 1152, 792, 994, 1473, 1409, 1173, 2054, 2199, 1329, 919, 1212, 1930, 1743, 1565, 2864, 3216, 1747, 1181, 1603, 3348, 3195, 2358, 4123, 5366, 3030, 1716, 2258, 5951, 6046, 2683, 4742, 6503, 3973, 1692, 2419, 6448, 6446, 2942, 6775, 8744, 5168, 1735, 3614, 7913, 7236, 2552, 5998, 7262, 4225, 1467, 3429, 6488, 5776, 1655, 5544, 6999, 4064, 952, 3329, 6388, 5566, 2306, 8123, 8819, 4361, 1310, 4261, 7282, 5547, 2749, 6763, 6859, 3376, 1325, 3565, 5454, 4060, 1929, 4556, 4401, 2033, 859, 2990, 4214, 2641, 899, 2531, 2891, 1581, 757, 2281, 3497, 2680, 2134, 3446, 3143, 1530, 1083, 2167, 3260, 2407, 2300, 3424, 2897, 1269, 1046, 1802, 2659, 1867, 965, 2159, 2053, 939, 803, 1424, 2024, 1439, 1161, 2402, 3346, 1928, 764, 2020, 4019, 3787, 1601, 2898, 4089, 2389, 1023, 2103, 4913, 4901, 1286, 3227, 3732, 1942, 1089, 1579, 3489, 3382, 1220, 2934, 2832, 1204, 1090, 1356, 2133, 1645, 1472, 2882, 2513, 1041, 1029, 1344, 1795, 1102, 1691, 3072, 2562, 1031, 1043, 1165, 1706, 1014, 1441, 2525, 2229, 935, 988, 937, 1172, 777, 935, 1321, 1263, 814, 792, 732, 701, 766, 599, 735, 978, 890, 630, 649, 769, 764, 588, 899, 1197, 965, 628, 646, 755, 762, 793, 895, 769, 762, 741, 694, 691, 677, 832, 699, 762, 818, 832, 754, 635, 698, 731, 1177, 1211, 851, 807, 928, 905, 804, 1030, 1718, 1470, 752, 796, 894, 1240, 920, 886, 1323, 1118, 603, 804, 808, 895, 860, 729, 759, 769, 714, 687, 581, 649, 757, 558, 689, 735, 695, 578, 617, 786, 660, 593, 663, 670, 718, 628, 631, 834, 697, 682, 716, 681, 620, 711, 902, 886, 724, 658, 697, 698, 567, 690, 848, 808, 741, 672, 660, 593, 591, 683, 641, 554, 638, 737, 740, 761, 770, 739, 702, 652, 751, 711, 595, 749, 744, 728, 725, 683, 741, 802, 547, 620, 782, 699, 643, 620, 799, 676, 542, 654, 769, 680, 652, 696, 709, 605, 619, 672, 628, 521, 573, 640, 553, 622, 627, 698, 655, 551, 646, 651, 582, 763, 761, 697, 647, 581, 680, 594, 561, 771, 729, 663, 706, 531, 655, 656, 684, 645, 732, 680, 630, 574, 667, 708, 685, 723, 683, 671, 589, 640, 597, 576, 674, 738, 615, 581, 612, 680, 568, 690, 777, 751, 664, 618, 651, 687, 664, 722, 793, 692, 732, 696, 796, 750, 735, 794, 717, 691, 761, 755, 862, 687, 750, 942, 700, 743, 762, 651, 731, 645, 746, 811, 622, 686, 632, 586, 627, 599, 569, 612, 633, 491, 540, 482, 499, 468, 418, 429, 475, 528, 613, 641, 551, 489, 509, 583, 557, 528, 547, 659, 653, 454, 572, 765, 681, 567, 584, 578, 748, 670, 568, 693, 624, 587, 741, 731, 705, 669, 632, 646, 645, 671, 823, 854, 640, 532, 701, 732, 670, 743, 738, 810, 631, 590, 644, 688, 773, 689, 625, 645, 709, 747, 697, 708, 799, 705, 570, 650, 786, 769, 676, 699, 755, 691, 694, 801, 829, 804, 667, 715, 740, 758, 757, 801, 864, 784, 686, 696, 782, 677, 1031, 1006, 778, 623, 789, 1031, 830, 556, 1559, 1802, 1064, 621, 988, 1760, 1577, 575, 1283, 1707, 1132, 569, 848, 1629, 1561, 622, 799, 1083, 839, 549, 740, 1059, 1049, 731, 774, 1148, 1041, 707, 749, 1095, 1149, 696, 843, 1187, 1017, 678, 769, 1162, 1176, 625, 804, 809, 630, 509, 670, 841, 794, 594, 738, 718, 499, 482, 598, 696, 708, 530, 674, 693, 459, 488, 572, 693, 720, 575, 586, 611, 505, 502, 494, 623, 689, 634, 534, 563, 588, 526, 471, 493, 606, 616, 593, 614, 573, 471, 455, 510, 558, 633, 706, 728, 586, 458, 560, 717, 752, 528, 517, 568, 520, 470, 502, 629, 696, 500, 491, 486, 438, 423, 505, 479, 439, 451, 549, 611, 461, 417, 521, 483, 493, 428, 519, 596, 521, 482, 567, 640, 566, 340, 436, 527, 521, 382, 370, 494, 461, 416, 510, 506, 463, 374, 379, 440, 356]"
0.6129157543182373,0.27542969584465027,-0.21875441074371338,0.8595044016838074,-0.021694734692573547,-0.39843302965164185,0.7011798620223999,-0.23622477054595947,0.9751796722412109,15.75,-0.14696085453033447,0.5827903747558594,20.0,-0.07615053653717041,0.473785400390625,21.75,0.021267294883728027,0.4227161407470703,23.25,0.16474759578704834,0.3719329833984375,19.25,"[586, 583, 567, 544, 579, 549, 569, 580, 525, 579, 523, 612, 649, 597, 535, 501, 608, 571, 471, 545, 632, 542, 401, 456, 568, 569, 543, 567, 536, 430, 458, 463, 504, 541, 547, 532, 497, 497, 549, 528, 518, 594, 576, 550, 566, 580, 601, 536, 497, 522, 570, 560, 481, 632, 616, 521, 514, 544, 521, 422, 463, 574, 535, 473, 503, 466, 437, 466, 508, 507, 495, 476, 542, 469, 444, 500, 515, 517, 541, 520, 559, 539, 563, 557, 573, 632, 599, 520, 566, 530, 552, 608, 605, 568, 500, 560, 493, 459, 550, 602, 558, 473, 498, 561, 512, 430, 498, 596, 581, 515, 590, 607, 509, 603, 646, 584, 522, 618, 640, 565, 543, 577, 581, 522, 547, 584, 585, 580, 592, 663, 600, 503, 560, 629, 606, 578, 596, 614, 644, 602, 539, 663, 669, 654, 504, 593, 547, 475, 543, 604, 591, 515, 559, 575, 473, 549, 693, 596, 488, 516, 590, 524, 482, 584, 693, 612, 523, 605, 691, 701, 517, 546, 693, 646, 602, 611, 659, 681, 551, 646, 686, 649, 673, 664, 545, 654, 601, 602, 604, 532, 634, 564, 546, 569, 547, 591, 511, 558, 584, 539, 891, 1294, 1024, 691, 833, 766, 657, 478, 1673, 2632, 1937, 765, 1062, 1078, 1367, 727, 1717, 2861, 2248, 849, 1049, 1369, 1847, 1110, 1324, 2211, 1822, 760, 726, 1253, 1687, 1075, 877, 1395, 1252, 704, 598, 1082, 1276, 867, 663, 749, 667, 614, 611, 745, 796, 665, 625, 694, 691, 672, 662, 695, 656, 643, 657, 650, 607, 671, 775, 854, 780, 659, 806, 795, 716, 619, 789, 1083, 985, 709, 821, 828, 662, 548, 782, 1023, 918, 718, 645, 661, 624, 594, 617, 729, 754, 704, 617, 542, 498, 573, 601, 617, 557, 578, 613, 600, 524, 585, 576, 581, 522, 540, 704, 635, 488, 590, 629, 642, 531, 548, 693, 611, 535, 654, 667, 640, 561, 572, 680, 637, 570, 567, 612, 589, 568, 624, 579, 665, 622, 500, 594, 590, 574, 598, 648, 596, 614, 571, 577, 608, 501, 574, 743, 710, 557, 548, 645, 704, 523, 515, 723, 765, 605, 554, 655, 721, 653, 560, 547, 684, 605, 585, 661, 580, 623, 575, 628, 988, 971, 669, 653, 628, 655, 607, 818, 1285, 1244, 747, 748, 909, 915, 794, 944, 1608, 1593, 872, 716, 942, 1306, 1155, 2129, 3308, 3635, 1787, 1363, 1919, 3374, 3084, 3472, 2600, 4001, 2716, 1861, 1978, 4867, 5646, 3678, 2331, 5037, 3876, 2250, 1787, 5906, 7139, 3825, 4649, 7840, 5515, 2592, 2687, 7903, 8812, 3963, 6496, 10009, 6662, 3064, 3872, 10642, 11176, 3057, 6436, 8418, 5133, 2599, 4084, 9781, 9457, 2421, 4238, 4700, 2638, 1746, 2589, 5502, 5188, 2109, 3082, 2708, 1589, 1224, 1771, 2724, 2478, 1484, 2850, 2565, 1499, 976, 1886, 3053, 2435, 1760, 5410, 5054, 1999, 1355, 4335, 6168, 3947, 3488, 6676, 5469, 1863, 2307, 4885, 5786, 2964, 4049, 6584, 5034, 1864, 1964, 4016, 4987, 2817, 2290, 4463, 3649, 1403, 998, 2753, 4093, 2474, 935, 2421, 2348, 1094, 598, 1349, 2476, 1891, 898, 2071, 1964, 875, 912, 1070, 1322, 1050, 1252, 2055, 1679, 626, 1051, 1061, 950, 746, 802, 943, 857, 657, 578, 526, 729, 706, 1032, 1672, 1516, 734, 693, 839, 1007, 705, 713, 988, 924, 605, 634, 739, 860, 744, 840, 976, 828, 726, 678, 685, 783, 719, 708, 678, 816, 836, 642, 606, 751, 699, 697, 854, 934, 852, 604, 630, 784, 747, 649, 752, 732, 637, 587, 589, 560, 622, 646, 608, 686, 711, 606, 540, 589, 619, 854, 741, 721, 872, 692, 569, 759, 759, 828, 892, 723, 637, 665, 707, 788, 720, 852, 859, 847, 630, 610, 670, 695, 773, 707, 643, 702, 696, 634, 559, 555, 657, 631, 635, 697, 674, 565, 544, 594, 627, 756, 755, 676, 732, 726, 669, 639, 665, 681, 698, 706, 690, 754, 767, 694, 679, 626, 746, 707, 668, 669, 762, 807, 657, 684, 748, 684, 642, 744, 816, 794, 662, 642, 642, 704, 626, 647, 638, 644, 689, 776, 762, 643, 693, 671, 577, 569, 617, 852, 796, 665, 840, 724, 754, 738, 642, 856, 810, 916, 1004, 816, 834, 877, 824, 686, 616, 709, 783, 685, 694, 715, 685, 653, 559, 650, 658, 608, 568, 619, 681, 669, 602, 593, 545, 535, 582, 538, 605, 676, 665, 679, 671, 587, 666, 636, 637, 615, 629, 607, 566, 599, 578, 606, 697, 605, 663, 564, 483, 561, 569, 620, 584, 564, 715, 655, 526, 523, 617, 619, 557, 621, 666, 648, 637, 618, 692, 717, 638, 728, 713, 642, 694, 654, 637, 639, 595, 714, 687, 523, 615, 678, 581, 535, 593, 677, 559, 555, 711, 674, 579, 644, 655, 676, 614, 621, 722, 597, 631, 698, 659, 685, 548, 611, 638, 566, 649, 660, 649, 620, 548, 605, 631, 547, 623, 627, 620, 632, 645, 674, 648, 577, 682, 627, 584, 681, 668, 568, 617, 584, 615, 630, 564, 733, 729, 695, 609, 486, 697, 739, 564, 760, 718, 752, 705, 598, 801, 877, 828, 684, 560, 698, 687, 549, 677, 703, 721, 825, 699, 595, 614, 628, 609, 649, 736, 577, 545, 607, 635, 587, 525, 661, 708, 598, 539, 618, 709, 650, 600, 726, 726, 573, 671, 668, 635, 650, 599, 834, 791, 617, 832, 747, 599, 658, 686, 873, 713, 749, 993, 930, 726, 705, 756, 1106, 968, 687, 1020, 1134, 804, 655, 816, 1396, 1292, 660, 1108, 1323, 887, 648, 887, 1612, 1494, 780, 1086, 1461, 1035, 701, 921, 1593, 1561, 806, 1059, 1417, 1027, 720, 1029, 1617, 1553, 712, 812, 947, 753, 689, 894, 1106, 1054, 575, 579, 619, 520, 570, 549, 628, 654, 688, 706, 584, 529, 610, 606, 623, 651, 688, 709, 613, 505, 534, 639, 624, 601, 707, 719, 612, 556, 633, 677, 521, 583, 611, 615, 577, 443, 547, 627, 611, 625, 503, 669, 701, 502, 472, 520, 645, 632, 418, 617, 623, 475, 472, 466, 617, 571, 547, 612, 537, 487, 506, 410, 491, 546, 519, 596, 474, 451, 458, 444, 470, 446, 483, 559, 568, 526, 521, 355, 407, 497, 506, 489, 537, 464, 445, 419, 402, 537, 459, 381, 470, 495, 472, 432, 413, 532]"
0.6267796158790588,0.271536260843277,-0.11868242919445038,0.78093421459198,0.01509588211774826,-0.19447514414787292,0.5532785654067993,-0.05508768558502197,0.478363037109375,22.75,0.010715842247009277,0.3024101257324219,27.0,0.07380139827728271,0.5597591400146484,26.75,0.09182584285736084,0.244903564453125,28.5,0.18194806575775146,0.5036830902099609,21.5,"[705, 665, 689, 683, 641, 681, 687, 670, 646, 629, 575, 645, 665, 707, 674, 600, 539, 553, 580, 612, 625, 611, 588, 575, 461, 526, 544, 527, 519, 522, 530, 476, 534, 550, 586, 597, 554, 551, 594, 561, 561, 611, 669, 636, 553, 548, 611, 587, 507, 578, 592, 520, 490, 587, 614, 562, 512, 507, 580, 517, 540, 557, 588, 612, 508, 484, 467, 459, 487, 514, 501, 515, 572, 523, 546, 583, 485, 509, 553, 539, 544, 568, 592, 652, 515, 549, 644, 539, 478, 504, 571, 604, 572, 567, 544, 469, 539, 615, 597, 546, 478, 517, 545, 536, 644, 697, 642, 544, 554, 586, 627, 603, 518, 598, 558, 522, 554, 560, 523, 527, 552, 518, 515, 599, 547, 467, 588, 596, 540, 433, 505, 582, 587, 511, 589, 637, 555, 573, 531, 564, 572, 582, 575, 535, 510, 668, 661, 511, 485, 610, 611, 468, 568, 688, 645, 520, 484, 497, 634, 586, 607, 628, 582, 583, 587, 496, 553, 586, 568, 567, 586, 574, 533, 554, 508, 535, 618, 627, 573, 489, 512, 599, 538, 503, 583, 596, 561, 561, 488, 465, 540, 581, 577, 589, 517, 547, 560, 507, 478, 516, 778, 1044, 953, 611, 588, 743, 721, 522, 1724, 2728, 2126, 894, 931, 1459, 1770, 967, 1969, 3337, 2644, 1021, 1085, 2074, 2503, 1337, 1188, 2031, 1772, 889, 841, 1428, 1801, 1173, 898, 1185, 1099, 745, 640, 940, 1082, 865, 787, 1046, 941, 746, 691, 848, 922, 803, 729, 925, 948, 781, 700, 790, 808, 751, 763, 957, 895, 683, 709, 797, 806, 633, 707, 870, 756, 567, 629, 880, 947, 622, 590, 672, 596, 507, 509, 616, 603, 476, 623, 652, 552, 583, 562, 586, 609, 548, 660, 629, 531, 601, 652, 655, 594, 533, 601, 596, 523, 643, 617, 614, 540, 542, 641, 648, 642, 614, 569, 558, 557, 594, 590, 557, 571, 610, 618, 598, 566, 628, 537, 545, 511, 569, 607, 573, 632, 634, 545, 686, 676, 570, 597, 630, 721, 615, 553, 579, 620, 547, 597, 618, 694, 714, 593, 584, 662, 597, 606, 612, 738, 721, 572, 462, 494, 558, 587, 572, 618, 624, 573, 582, 539, 597, 654, 632, 610, 592, 549, 585, 644, 668, 670, 578, 591, 617, 614, 619, 615, 647, 617, 553, 641, 652, 532, 670, 644, 599, 567, 602, 664, 557, 603, 956, 939, 683, 674, 787, 887, 735, 1673, 1793, 2385, 1603, 891, 1647, 3214, 3181, 4128, 3072, 6005, 4300, 2215, 2583, 7626, 8707, 6673, 6277, 11450, 8207, 3437, 4180, 12591, 14497, 6101, 9556, 15163, 10052, 3112, 6139, 15819, 16729, 3816, 10112, 14542, 8845, 2219, 6244, 14790, 14548, 1481, 9117, 11630, 6412, 1242, 5802, 11678, 10256, 1324, 5276, 5809, 2988, 1088, 3498, 5642, 4140, 1823, 2806, 2696, 1527, 1199, 2194, 2772, 2190, 3284, 4450, 3462, 1351, 2601, 3700, 3192, 1932, 6549, 9894, 7545, 1786, 4947, 6339, 4748, 1654, 7212, 11647, 9547, 3006, 5520, 7415, 5867, 2406, 4190, 7518, 6865, 2888, 3504, 4763, 4130, 2477, 1313, 2605, 2908, 1661, 1376, 1479, 1360, 1584, 660, 957, 1059, 833, 669, 705, 696, 788, 841, 839, 667, 617, 635, 610, 658, 711, 905, 923, 702, 667, 621, 610, 596, 681, 694, 809, 791, 650, 570, 627, 584, 496, 665, 842, 818, 614, 584, 607, 676, 610, 621, 740, 719, 597, 562, 637, 643, 587, 722, 888, 833, 695, 676, 714, 840, 756, 813, 1113, 1031, 768, 702, 831, 1058, 900, 977, 1329, 1157, 765, 831, 1081, 1244, 960, 1099, 1433, 1069, 585, 748, 1179, 1121, 615, 799, 989, 848, 642, 577, 887, 910, 670, 580, 671, 833, 853, 707, 673, 730, 665, 703, 709, 853, 939, 781, 700, 726, 766, 766, 712, 694, 744, 690, 713, 730, 766, 762, 870, 822, 687, 630, 690, 663, 705, 646, 879, 811, 624, 649, 771, 749, 569, 626, 868, 813, 574, 595, 641, 720, 623, 439, 647, 708, 576, 504, 526, 615, 566, 695, 713, 597, 595, 563, 619, 647, 589, 733, 699, 732, 702, 585, 638, 729, 740, 730, 652, 751, 700, 566, 596, 612, 753, 662, 635, 669, 647, 587, 639, 631, 637, 649, 613, 710, 628, 607, 658, 643, 687, 727, 670, 649, 588, 586, 605, 614, 703, 688, 611, 700, 701, 739, 628, 617, 796, 746, 600, 545, 634, 620, 514, 583, 697, 697, 533, 551, 661, 652, 494, 512, 717, 622, 585, 518, 557, 652, 481, 511, 635, 609, 618, 570, 484, 594, 570, 514, 625, 638, 631, 542, 544, 633, 544, 528, 622, 683, 686, 615, 756, 760, 740, 699, 712, 630, 595, 623, 705, 617, 597, 638, 671, 530, 552, 703, 665, 521, 459, 507, 579, 529, 515, 628, 629, 521, 486, 556, 657, 542, 649, 642, 581, 551, 631, 626, 628, 602, 659, 589, 562, 636, 561, 548, 498, 712, 719, 611, 624, 630, 499, 461, 592, 755, 692, 625, 583, 529, 575, 560, 635, 725, 703, 630, 578, 541, 636, 581, 627, 738, 669, 572, 619, 582, 647, 669, 611, 641, 613, 635, 725, 627, 615, 585, 554, 487, 606, 693, 673, 558, 586, 647, 572, 540, 482, 674, 693, 623, 528, 687, 730, 544, 470, 773, 785, 565, 688, 837, 808, 670, 480, 654, 754, 583, 629, 737, 803, 807, 642, 694, 733, 586, 690, 761, 833, 739, 650, 542, 687, 658, 540, 705, 793, 677, 668, 586, 568, 658, 667, 634, 665, 740, 1249, 1309, 769, 738, 877, 1107, 988, 646, 1548, 1639, 956, 652, 1028, 1697, 1385, 665, 929, 892, 649, 570, 766, 1096, 926, 741, 658, 810, 744, 580, 658, 867, 942, 675, 615, 794, 571, 552, 612, 818, 995, 686, 711, 659, 466, 567, 641, 687, 686, 590, 754, 716, 529, 592, 677, 692, 595, 618, 593, 627, 602, 614, 617, 603, 662, 623, 618, 571, 624, 634, 598, 637, 607, 567, 589, 643, 671, 556, 507, 554, 625, 582, 694, 719, 594, 573, 642, 714, 694, 634, 697, 654, 482, 446, 609, 721, 655, 539, 567, 496, 447, 404, 448, 531, 542, 490, 497, 463, 421, 419, 467, 475, 494, 449, 474, 455, 453, 497, 577, 489, 414, 345, 454, 450, 371, 439, 520, 483, 373, 453, 506, 451, 349, 439, 460, 416, 393]"
0.6953485012054443,0.2576671242713928,-0.06920991092920303,0.6900227069854736,-0.011913061141967773,-0.09555293619632721,0.3359828591346741,-0.09080076217651367,0.6096839904785156,15.25,-0.06605291366577148,0.5694866180419922,20.5,-0.05217695236206055,0.6159782409667969,20.5,-0.01655721664428711,0.43702125549316406,20.25,0.03608560562133789,0.9434223175048828,15.5,"[405, 514, 549, 659, 733, 658, 546, 512, 468, 543, 599, 653, 762, 694, 703, 651, 520, 510, 490, 614, 767, 601, 508, 538, 549, 545, 484, 550, 608, 492, 469, 531, 468, 498, 441, 485, 570, 484, 420, 463, 602, 586, 552, 555, 601, 535, 527, 554, 564, 588, 536, 550, 613, 593, 544, 507, 520, 487, 537, 580, 570, 630, 565, 561, 524, 488, 594, 626, 577, 507, 486, 571, 526, 509, 572, 561, 557, 506, 511, 598, 461, 535, 531, 523, 568, 628, 585, 493, 591, 552, 602, 475, 522, 619, 591, 629, 492, 548, 525, 433, 458, 465, 451, 450, 526, 621, 598, 513, 465, 500, 565, 567, 531, 533, 508, 464, 520, 557, 619, 588, 563, 586, 479, 465, 543, 620, 624, 531, 604, 585, 534, 531, 553, 572, 620, 605, 648, 615, 426, 532, 600, 605, 577, 564, 676, 629, 528, 544, 551, 560, 534, 579, 623, 495, 506, 536, 520, 512, 546, 548, 510, 553, 495, 501, 458, 452, 455, 471, 570, 540, 435, 451, 456, 502, 446, 459, 586, 558, 549, 531, 505, 534, 575, 592, 534, 748, 674, 525, 523, 601, 605, 512, 563, 710, 637, 483, 543, 556, 510, 514, 486, 657, 581, 465, 543, 566, 520, 507, 709, 910, 876, 583, 666, 772, 680, 639, 1629, 2332, 1719, 708, 1111, 1448, 1461, 846, 2137, 3219, 2314, 866, 1211, 2292, 2424, 1088, 1463, 2229, 1722, 912, 1116, 2034, 2120, 1032, 866, 1298, 1247, 863, 898, 1323, 1372, 823, 671, 1021, 956, 773, 814, 909, 914, 680, 839, 1028, 833, 614, 719, 866, 899, 666, 1018, 1219, 959, 768, 831, 960, 1006, 778, 908, 1011, 886, 719, 740, 815, 803, 764, 681, 813, 700, 570, 665, 739, 731, 667, 571, 641, 599, 551, 629, 739, 722, 535, 637, 658, 577, 512, 615, 653, 627, 555, 639, 574, 578, 470, 532, 537, 579, 641, 661, 613, 557, 525, 563, 518, 530, 578, 638, 715, 565, 446, 566, 542, 519, 514, 603, 582, 593, 581, 476, 523, 657, 665, 598, 598, 551, 477, 511, 603, 736, 700, 659, 553, 549, 622, 551, 458, 529, 667, 609, 529, 538, 535, 486, 482, 551, 590, 524, 540, 562, 612, 582, 596, 626, 531, 603, 614, 509, 538, 584, 617, 547, 450, 634, 683, 532, 605, 615, 608, 569, 493, 691, 816, 679, 580, 654, 672, 647, 525, 742, 897, 873, 680, 651, 674, 751, 765, 798, 1033, 973, 671, 716, 938, 1056, 859, 872, 1082, 1148, 810, 792, 951, 1406, 1343, 1610, 1789, 2358, 1518, 1365, 1214, 2923, 3360, 2589, 2873, 4487, 2986, 1982, 1774, 5437, 6040, 3133, 2088, 3858, 2730, 1943, 1380, 5061, 6114, 3476, 2061, 3981, 2840, 2026, 1487, 5192, 6455, 2171, 1860, 2591, 1689, 1314, 1459, 3399, 3874, 1333, 1551, 2163, 1655, 944, 763, 1629, 1864, 1124, 3411, 4364, 2495, 875, 1694, 4105, 3899, 1000, 3056, 3316, 1583, 828, 1451, 3312, 2985, 959, 2083, 1937, 895, 917, 791, 1604, 1468, 816, 1551, 1694, 1067, 697, 676, 1144, 1165, 661, 1873, 2092, 1150, 607, 1012, 1395, 1138, 780, 1469, 1501, 818, 663, 952, 1098, 823, 567, 762, 819, 613, 498, 658, 650, 557, 623, 763, 699, 592, 542, 670, 655, 479, 606, 720, 605, 563, 538, 634, 685, 552, 518, 615, 741, 596, 456, 574, 630, 594, 475, 624, 688, 624, 537, 508, 636, 598, 588, 683, 662, 622, 614, 514, 609, 601, 691, 818, 770, 643, 733, 613, 621, 714, 811, 898, 830, 649, 717, 731, 801, 863, 721, 754, 759, 692, 612, 767, 888, 850, 703, 709, 887, 819, 655, 628, 730, 775, 682, 822, 908, 772, 603, 695, 770, 709, 683, 662, 820, 783, 602, 679, 826, 790, 681, 661, 755, 704, 668, 643, 657, 765, 569, 642, 689, 733, 723, 583, 651, 552, 621, 711, 633, 689, 640, 535, 655, 541, 652, 698, 645, 782, 757, 701, 678, 608, 637, 645, 685, 781, 720, 673, 691, 648, 629, 580, 598, 661, 728, 764, 675, 641, 694, 642, 698, 652, 667, 738, 681, 637, 608, 616, 696, 637, 669, 693, 742, 661, 560, 677, 609, 551, 503, 584, 677, 630, 632, 695, 741, 715, 679, 632, 693, 694, 659, 624, 727, 767, 733, 617, 583, 690, 670, 627, 605, 598, 617, 558, 669, 735, 737, 593, 643, 643, 532, 531, 595, 796, 876, 697, 756, 764, 678, 581, 715, 896, 726, 671, 708, 656, 566, 590, 616, 698, 565, 675, 672, 502, 494, 619, 587, 535, 639, 705, 686, 594, 571, 682, 612, 569, 618, 593, 566, 603, 612, 610, 584, 593, 614, 629, 570, 585, 581, 677, 683, 607, 600, 578, 583, 593, 589, 593, 536, 551, 497, 534, 562, 632, 621, 496, 514, 544, 571, 556, 585, 624, 595, 527, 551, 557, 557, 544, 602, 600, 573, 604, 667, 608, 501, 601, 612, 535, 603, 628, 600, 557, 508, 566, 572, 530, 677, 631, 513, 553, 706, 641, 590, 619, 678, 610, 524, 634, 716, 618, 553, 626, 583, 549, 581, 667, 591, 551, 552, 571, 530, 489, 557, 564, 524, 485, 557, 603, 567, 537, 576, 583, 732, 612, 686, 750, 713, 614, 651, 752, 577, 538, 635, 740, 674, 569, 600, 613, 597, 577, 669, 671, 560, 523, 656, 637, 772, 681, 598, 616, 578, 566, 592, 667, 786, 652, 570, 704, 682, 609, 658, 767, 784, 643, 711, 748, 700, 773, 667, 750, 743, 629, 610, 688, 669, 791, 655, 662, 707, 642, 545, 641, 685, 749, 633, 651, 625, 685, 615, 694, 664, 640, 586, 520, 606, 642, 591, 607, 649, 606, 607, 609, 565, 560, 615, 536, 555, 535, 561, 590, 526, 595, 565, 534, 567, 535, 546, 526, 677, 645, 602, 545, 626, 554, 508, 594, 596, 520, 509, 519, 551, 570, 575, 651, 577, 579, 631, 508, 486, 569, 673, 715, 600, 565, 655, 579, 485, 600, 672, 688, 473, 601, 755, 654, 500, 654, 753, 633, 455, 474, 473, 550, 457, 491, 542, 497, 482, 496, 438, 500, 488, 534, 578, 495, 409, 469, 440, 442, 405, 448, 525, 417, 399, 498, 470, 426, 418, 399, 432, 368, 553, 623, 506, 410, 416, 398, 478, 426, 675, 735, 617, 504, 515, 461, 579, 533]"
0.6393698453903198,0.18910838663578033,0.08106278628110886,0.4226090908050537,-0.131974458694458,0.05421186983585358,-0.03584492206573486,-0.10387623310089111,0.6204128265380859,20.0,-0.10187351703643799,0.6291389465332031,18.0,-0.04794323444366455,0.6234169006347656,21.5,0.05462443828582764,0.7882118225097656,15.5,0.19309794902801514,0.0,18.75,"[605, 649, 625, 636, 726, 643, 623, 648, 563, 586, 537, 602, 662, 583, 573, 555, 593, 489, 441, 536, 577, 519, 438, 570, 606, 485, 508, 644, 612, 534, 545, 667, 551, 496, 401, 470, 433, 483, 545, 563, 556, 540, 407, 519, 550, 516, 565, 542, 594, 522, 430, 500, 510, 488, 541, 563, 567, 420, 458, 508, 558, 513, 499, 608, 440, 480, 506, 497, 537, 486, 480, 528, 457, 424, 467, 492, 546, 490, 480, 508, 538, 540, 449, 496, 573, 541, 489, 508, 531, 526, 467, 503, 538, 498, 519, 522, 514, 535, 492, 496, 459, 439, 507, 499, 517, 549, 623, 527, 395, 485, 605, 597, 526, 554, 567, 517, 513, 554, 581, 578, 508, 495, 520, 542, 557, 545, 587, 533, 503, 563, 591, 580, 540, 570, 554, 466, 555, 657, 587, 490, 540, 584, 615, 551, 504, 628, 624, 527, 534, 652, 609, 478, 577, 628, 540, 475, 585, 646, 583, 500, 523, 475, 528, 539, 529, 578, 525, 503, 443, 549, 542, 567, 561, 608, 630, 512, 511, 588, 588, 564, 507, 603, 688, 578, 584, 478, 528, 563, 560, 511, 529, 560, 456, 440, 490, 434, 400, 440, 525, 555, 570, 620, 626, 512, 574, 608, 575, 578, 546, 576, 563, 521, 512, 578, 592, 588, 630, 728, 572, 484, 621, 669, 615, 510, 942, 1165, 922, 552, 779, 921, 857, 605, 997, 1357, 1129, 587, 749, 1090, 1124, 702, 685, 872, 811, 631, 660, 938, 1055, 714, 578, 681, 684, 563, 623, 835, 862, 584, 642, 745, 626, 607, 701, 703, 614, 566, 753, 860, 769, 651, 679, 869, 850, 723, 713, 787, 751, 621, 617, 759, 763, 670, 678, 869, 899, 697, 612, 707, 721, 690, 685, 747, 697, 523, 606, 798, 778, 632, 629, 525, 494, 500, 652, 716, 516, 533, 558, 557, 566, 543, 602, 669, 576, 495, 611, 574, 551, 617, 580, 636, 627, 650, 586, 544, 525, 594, 550, 557, 546, 546, 580, 635, 662, 586, 580, 650, 658, 659, 607, 667, 662, 586, 567, 649, 645, 594, 569, 642, 610, 582, 578, 657, 629, 570, 508, 543, 574, 546, 553, 561, 588, 550, 578, 587, 538, 532, 633, 586, 597, 623, 642, 758, 685, 475, 595, 650, 608, 545, 659, 961, 963, 610, 676, 786, 664, 521, 759, 1163, 1174, 772, 708, 674, 740, 730, 1080, 1849, 1926, 1234, 864, 1065, 1508, 1318, 1002, 2216, 2261, 1241, 779, 1164, 1860, 1517, 788, 1202, 1175, 753, 648, 781, 1075, 914, 1273, 1371, 1610, 1240, 845, 785, 1389, 1739, 3080, 4278, 5714, 3518, 1432, 2422, 5521, 5989, 4353, 6484, 7616, 4296, 2082, 3902, 7952, 8082, 3498, 4280, 4749, 2981, 2104, 2681, 5091, 5509, 1693, 2285, 2586, 1663, 1674, 1707, 2989, 2968, 2010, 2196, 2507, 1774, 1342, 2203, 3574, 3294, 1687, 1307, 1702, 1315, 1083, 1624, 2246, 2203, 935, 1067, 1309, 890, 809, 824, 1168, 1353, 811, 1206, 1459, 796, 661, 895, 1187, 1215, 734, 872, 971, 642, 561, 643, 845, 888, 687, 765, 831, 617, 557, 657, 674, 738, 701, 931, 836, 580, 632, 677, 657, 649, 678, 957, 829, 553, 623, 552, 640, 505, 548, 785, 750, 590, 551, 546, 615, 466, 585, 670, 697, 645, 660, 572, 671, 610, 550, 675, 624, 566, 612, 549, 484, 493, 500, 577, 588, 479, 477, 501, 450, 455, 623, 674, 664, 526, 545, 593, 603, 574, 675, 737, 693, 603, 672, 691, 640, 631, 637, 661, 573, 566, 598, 646, 669, 629, 573, 671, 657, 642, 559, 559, 626, 588, 725, 935, 952, 970, 806, 899, 955, 728, 899, 922, 953, 979, 829, 907, 881, 803, 677, 600, 744, 768, 603, 697, 779, 799, 678, 580, 727, 834, 621, 610, 640, 712, 678, 706, 771, 754, 646, 669, 764, 783, 693, 706, 711, 624, 631, 708, 701, 733, 698, 636, 738, 790, 734, 592, 613, 695, 631, 595, 556, 610, 661, 577, 551, 572, 711, 665, 558, 616, 658, 626, 556, 589, 739, 770, 602, 644, 691, 678, 696, 670, 725, 749, 675, 607, 565, 696, 743, 596, 595, 734, 756, 601, 604, 729, 690, 586, 636, 664, 807, 666, 540, 661, 681, 652, 736, 619, 708, 758, 698, 730, 699, 664, 668, 696, 667, 580, 596, 703, 731, 618, 653, 686, 628, 591, 630, 648, 665, 596, 794, 721, 744, 774, 768, 704, 705, 806, 627, 692, 761, 678, 650, 696, 644, 595, 606, 604, 606, 621, 562, 590, 573, 558, 581, 605, 612, 531, 549, 665, 684, 617, 639, 686, 717, 643, 598, 741, 854, 781, 745, 819, 777, 551, 546, 731, 723, 737, 695, 728, 708, 557, 636, 646, 674, 778, 564, 633, 601, 552, 586, 599, 545, 561, 583, 670, 609, 646, 591, 600, 639, 570, 580, 653, 628, 607, 666, 586, 688, 710, 570, 568, 594, 565, 552, 523, 631, 671, 539, 417, 560, 542, 447, 461, 535, 612, 592, 581, 631, 613, 497, 523, 506, 557, 614, 759, 709, 542, 533, 625, 588, 467, 564, 586, 533, 608, 611, 610, 655, 570, 584, 620, 645, 630, 623, 600, 599, 562, 536, 545, 677, 671, 746, 604, 620, 655, 589, 641, 604, 636, 702, 638, 678, 643, 553, 571, 527, 603, 610, 689, 706, 578, 599, 603, 655, 631, 560, 717, 812, 660, 638, 712, 718, 672, 619, 740, 878, 810, 660, 807, 868, 734, 720, 775, 1021, 890, 906, 1333, 1517, 1130, 655, 971, 1523, 1480, 1103, 1355, 1728, 1224, 734, 1122, 1631, 1684, 912, 1099, 1205, 958, 668, 865, 1168, 1106, 748, 898, 750, 663, 624, 697, 741, 667, 759, 676, 530, 676, 682, 600, 566, 635, 680, 591, 524, 584, 544, 614, 582, 551, 578, 653, 616, 558, 561, 638, 532, 472, 441, 555, 526, 427, 477, 532, 592, 518, 517, 660, 610, 498, 556, 566, 590, 545, 461, 566, 626, 602, 495, 550, 654, 605, 448, 449, 613, 648, 506, 470, 665, 643, 522, 588, 648, 534, 445, 511, 532, 538, 555, 515, 548, 556, 574, 551, 546, 545, 520, 501, 515, 516, 423, 390, 465, 474, 551, 495, 513, 563, 415, 461, 571, 571, 475, 455, 483, 477, 440, 454, 485, 516, 452, 495, 475, 417, 419, 429, 413, 435]"
0.5595401525497437,0.1652093529701233,0.1525689959526062,0.13657745718955994,-0.18711063265800476,0.09018662571907043,-0.37793126702308655,-0.10908734798431396,0.5065441131591797,24.5,-0.0417102575302124,0.505828857421875,27.0,0.033391594886779785,-0.13175010681152344,18.0,0.10191309452056885,-0.2662181854248047,19.5,0.2333770990371704,-0.31685829162597656,26.75,"[448, 552, 534, 562, 695, 564, 534, 545, 481, 517, 531, 618, 620, 641, 586, 577, 538, 569, 569, 560, 574, 543, 549, 553, 549, 588, 546, 572, 549, 598, 543, 472, 453, 431, 481, 522, 464, 508, 470, 418, 478, 525, 544, 522, 465, 550, 591, 506, 527, 581, 587, 512, 473, 578, 557, 582, 496, 539, 557, 452, 459, 505, 541, 540, 470, 542, 620, 515, 471, 526, 485, 501, 559, 653, 584, 535, 555, 565, 476, 442, 539, 515, 513, 555, 523, 506, 566, 597, 521, 511, 566, 596, 597, 567, 574, 579, 513, 508, 470, 540, 587, 552, 471, 523, 528, 576, 556, 522, 522, 492, 477, 504, 581, 581, 558, 652, 593, 466, 494, 569, 567, 614, 626, 596, 566, 577, 578, 580, 506, 506, 538, 497, 471, 520, 489, 526, 585, 517, 557, 563, 601, 633, 590, 549, 593, 591, 580, 513, 600, 651, 631, 566, 541, 592, 588, 540, 532, 611, 600, 518, 592, 596, 657, 560, 531, 569, 541, 546, 576, 517, 552, 612, 556, 474, 494, 543, 562, 530, 482, 517, 535, 516, 447, 482, 542, 640, 532, 551, 596, 502, 482, 566, 531, 563, 579, 511, 488, 519, 469, 489, 546, 556, 565, 606, 579, 511, 573, 601, 498, 523, 513, 606, 591, 502, 561, 566, 528, 505, 464, 468, 594, 643, 580, 540, 608, 559, 553, 529, 529, 607, 550, 572, 654, 627, 614, 560, 530, 574, 639, 660, 577, 668, 692, 546, 590, 687, 705, 615, 538, 583, 605, 547, 526, 650, 687, 608, 487, 556, 626, 575, 556, 590, 703, 623, 521, 638, 615, 591, 604, 604, 626, 558, 576, 660, 715, 671, 656, 741, 706, 620, 786, 865, 907, 762, 808, 1065, 945, 808, 857, 945, 860, 688, 866, 1222, 1107, 825, 821, 890, 778, 695, 818, 991, 955, 832, 650, 651, 651, 683, 820, 807, 758, 730, 641, 708, 647, 647, 718, 721, 709, 616, 604, 551, 524, 559, 602, 606, 531, 547, 580, 585, 505, 525, 489, 601, 639, 583, 559, 632, 595, 511, 527, 593, 605, 500, 601, 567, 666, 651, 556, 472, 591, 682, 640, 577, 570, 619, 597, 539, 590, 610, 688, 548, 594, 694, 576, 594, 715, 729, 633, 503, 454, 542, 522, 462, 584, 635, 515, 512, 527, 516, 498, 533, 575, 546, 617, 807, 751, 608, 541, 622, 646, 535, 718, 676, 600, 659, 613, 568, 583, 592, 729, 866, 942, 802, 631, 643, 730, 730, 1252, 2390, 2292, 1110, 775, 1252, 1798, 1294, 1663, 3642, 3400, 1366, 971, 1866, 2768, 1854, 2348, 3025, 2446, 1596, 1017, 1704, 2554, 2067, 5541, 5580, 9028, 6800, 2176, 3550, 8815, 10146, 5685, 9014, 13861, 9267, 2508, 5618, 13535, 14294, 2044, 5238, 6589, 3962, 1554, 3438, 6155, 5457, 2829, 1717, 3124, 2536, 1647, 2145, 4384, 5031, 2249, 2820, 4484, 3017, 1374, 2232, 5330, 5633, 1180, 1425, 1696, 1185, 776, 1152, 2035, 2105, 1081, 1178, 771, 517, 710, 730, 753, 713, 859, 1071, 875, 613, 662, 617, 785, 738, 622, 682, 757, 718, 722, 584, 713, 808, 691, 828, 713, 599, 694, 742, 615, 669, 834, 1157, 1039, 707, 797, 872, 704, 644, 793, 1106, 1110, 776, 816, 836, 686, 635, 717, 991, 894, 557, 648, 654, 597, 609, 712, 854, 747, 528, 643, 626, 548, 553, 621, 773, 735, 590, 650, 674, 640, 577, 644, 770, 647, 568, 612, 685, 681, 548, 626, 739, 620, 589, 581, 590, 592, 572, 626, 687, 694, 663, 598, 674, 652, 597, 687, 650, 577, 589, 548, 586, 688, 641, 753, 874, 741, 550, 557, 662, 728, 671, 699, 927, 895, 655, 583, 778, 903, 724, 681, 742, 800, 695, 545, 659, 737, 739, 662, 755, 776, 660, 538, 715, 836, 747, 633, 793, 807, 645, 609, 713, 809, 783, 613, 736, 801, 678, 684, 734, 753, 711, 657, 658, 712, 674, 671, 662, 641, 685, 614, 555, 540, 536, 639, 629, 553, 594, 596, 607, 656, 623, 640, 675, 683, 665, 635, 682, 735, 656, 552, 616, 750, 754, 611, 677, 705, 673, 613, 624, 708, 656, 570, 548, 606, 652, 583, 642, 649, 521, 682, 525, 659, 696, 639, 602, 587, 682, 672, 666, 673, 642, 617, 551, 522, 635, 740, 727, 653, 664, 617, 624, 553, 637, 819, 784, 625, 665, 667, 616, 596, 740, 669, 629, 558, 555, 612, 576, 506, 623, 606, 590, 668, 545, 570, 675, 577, 604, 635, 614, 616, 531, 563, 697, 615, 566, 591, 596, 521, 528, 502, 601, 636, 553, 587, 538, 552, 583, 661, 716, 679, 626, 631, 586, 600, 650, 682, 746, 654, 600, 571, 505, 716, 709, 549, 659, 725, 683, 660, 529, 617, 640, 552, 692, 652, 662, 645, 581, 621, 566, 561, 679, 698, 585, 655, 650, 681, 637, 614, 665, 696, 652, 611, 597, 619, 645, 684, 603, 577, 663, 658, 550, 526, 532, 621, 572, 520, 648, 590, 613, 597, 568, 597, 545, 484, 540, 686, 625, 586, 637, 646, 504, 538, 649, 699, 668, 652, 669, 673, 622, 657, 688, 692, 595, 524, 553, 743, 642, 743, 820, 615, 638, 584, 549, 704, 619, 650, 674, 638, 720, 686, 624, 679, 615, 571, 585, 604, 780, 715, 554, 552, 550, 633, 576, 602, 620, 557, 528, 591, 561, 681, 697, 703, 629, 587, 581, 650, 720, 704, 683, 628, 594, 586, 587, 605, 629, 614, 605, 689, 665, 663, 596, 570, 612, 678, 654, 647, 936, 899, 543, 488, 816, 1077, 891, 703, 1076, 1102, 683, 523, 871, 1215, 1080, 627, 758, 718, 599, 525, 669, 764, 754, 689, 755, 641, 608, 638, 690, 688, 632, 567, 738, 613, 509, 597, 713, 681, 517, 517, 675, 542, 400, 571, 532, 534, 461, 457, 556, 506, 445, 512, 479, 516, 481, 478, 467, 486, 512, 519, 537, 554, 519, 476, 578, 474, 482, 514, 509, 541, 493, 513, 510, 440, 567, 585, 509, 577, 520, 435, 397, 394, 484, 445, 388, 442, 463, 453, 459, 451, 507, 477, 412, 410, 456, 401, 466, 455, 425, 382, 427, 509, 437, 389, 437, 472, 419, 384, 466, 509, 471, 434, 425, 519, 467, 359, 384, 460, 477, 412, 439, 437, 444, 410, 386, 465, 441]"
0.542447030544281,0.10918638855218887,0.1564156413078308,0.02856956422328949,-0.25615206360816956,0.05850512906908989,-0.47059497237205505,-0.038674354553222656,-0.48995018005371094,16.0,0.0927896499633789,-0.2503395080566406,15.5,0.10566425323486328,-0.4474639892578125,18.25,0.1191110610961914,-0.5826473236083984,18.75,0.16545963287353516,0.19626617431640625,16.25,"[472, 593, 570, 614, 704, 613, 571, 588, 434, 467, 514, 616, 679, 568, 526, 511, 436, 511, 580, 629, 556, 560, 507, 457, 455, 563, 625, 576, 485, 506, 564, 516, 467, 396, 470, 453, 457, 467, 483, 510, 546, 439, 480, 555, 548, 517, 531, 549, 565, 488, 555, 584, 469, 453, 587, 631, 588, 597, 619, 545, 551, 519, 568, 636, 530, 486, 442, 442, 509, 548, 507, 516, 539, 540, 458, 534, 532, 523, 497, 520, 653, 606, 473, 450, 540, 544, 471, 521, 584, 533, 522, 519, 494, 512, 614, 590, 537, 518, 476, 515, 530, 576, 570, 503, 580, 578, 589, 588, 577, 574, 535, 539, 481, 461, 548, 610, 537, 508, 584, 552, 503, 459, 529, 627, 595, 564, 629, 560, 619, 526, 535, 620, 654, 587, 560, 608, 600, 522, 502, 550, 532, 463, 418, 564, 571, 540, 538, 433, 432, 450, 456, 515, 582, 547, 507, 485, 535, 553, 498, 520, 606, 563, 445, 501, 598, 544, 422, 500, 533, 535, 521, 517, 660, 700, 557, 488, 567, 600, 590, 560, 702, 753, 567, 551, 623, 499, 586, 585, 567, 651, 624, 623, 651, 499, 482, 510, 545, 635, 615, 635, 634, 640, 529, 551, 617, 612, 503, 508, 539, 636, 551, 441, 536, 597, 452, 436, 574, 516, 538, 576, 484, 518, 537, 597, 476, 489, 568, 514, 451, 478, 515, 547, 688, 711, 679, 510, 552, 577, 526, 609, 929, 1317, 1167, 694, 739, 739, 809, 650, 1126, 1479, 1152, 534, 751, 978, 966, 694, 614, 661, 562, 484, 585, 715, 594, 503, 550, 604, 610, 556, 728, 723, 563, 570, 585, 497, 496, 572, 573, 579, 587, 634, 661, 681, 716, 704, 585, 604, 665, 613, 566, 621, 711, 656, 639, 737, 658, 529, 698, 826, 857, 768, 884, 1015, 927, 699, 873, 831, 802, 776, 899, 1031, 907, 764, 694, 642, 733, 568, 537, 754, 686, 679, 536, 546, 593, 505, 460, 591, 546, 572, 580, 632, 535, 501, 676, 707, 534, 539, 591, 611, 573, 615, 655, 608, 521, 511, 627, 549, 504, 587, 607, 543, 525, 621, 610, 558, 588, 650, 550, 578, 623, 601, 553, 672, 683, 626, 566, 643, 651, 546, 570, 730, 728, 543, 507, 630, 642, 562, 590, 744, 681, 604, 531, 685, 783, 613, 607, 615, 651, 680, 586, 616, 600, 505, 666, 605, 535, 623, 577, 601, 566, 546, 651, 737, 685, 660, 738, 711, 625, 558, 1105, 1864, 1684, 852, 774, 846, 1031, 777, 1706, 3796, 3658, 1549, 1052, 1582, 2443, 1754, 1393, 3769, 3932, 1792, 1072, 1698, 2872, 2331, 1078, 3335, 3717, 1852, 852, 1556, 2886, 2453, 1708, 4448, 5144, 2747, 1140, 2221, 4102, 3639, 2104, 5336, 6680, 3811, 1143, 2694, 5714, 5448, 1529, 4563, 5482, 2969, 843, 2501, 5233, 4762, 955, 2784, 2849, 1408, 682, 1656, 2897, 2248, 831, 1071, 893, 622, 546, 697, 812, 550, 680, 846, 1155, 924, 581, 970, 1515, 1396, 572, 1354, 1692, 1064, 613, 1295, 2075, 1764, 556, 1064, 1160, 735, 598, 992, 1411, 1104, 594, 653, 592, 615, 603, 591, 749, 695, 506, 573, 569, 525, 472, 598, 581, 566, 662, 888, 710, 488, 524, 627, 616, 483, 900, 1394, 1056, 496, 659, 795, 844, 476, 937, 1395, 1112, 646, 744, 841, 942, 584, 682, 948, 830, 626, 655, 699, 704, 488, 586, 756, 754, 605, 525, 631, 660, 547, 549, 590, 680, 674, 552, 581, 563, 521, 543, 595, 597, 660, 708, 684, 571, 587, 600, 575, 538, 581, 664, 556, 506, 592, 699, 704, 764, 740, 640, 662, 714, 665, 779, 659, 818, 801, 693, 685, 736, 855, 717, 688, 709, 679, 673, 686, 581, 674, 694, 642, 738, 708, 624, 644, 666, 707, 622, 590, 667, 700, 602, 609, 626, 611, 589, 602, 671, 675, 607, 637, 621, 597, 679, 649, 622, 700, 682, 610, 614, 621, 661, 680, 584, 602, 706, 675, 486, 600, 665, 668, 601, 595, 569, 586, 594, 599, 587, 534, 506, 619, 578, 552, 488, 496, 624, 601, 616, 634, 609, 483, 614, 700, 707, 669, 677, 702, 661, 564, 602, 740, 719, 723, 635, 619, 652, 733, 596, 578, 631, 629, 639, 626, 614, 693, 659, 568, 629, 701, 652, 634, 586, 490, 558, 640, 680, 728, 604, 574, 567, 602, 556, 569, 607, 605, 582, 604, 584, 545, 619, 689, 639, 612, 558, 620, 581, 493, 613, 713, 659, 569, 574, 668, 586, 597, 583, 648, 583, 629, 557, 649, 647, 618, 559, 496, 525, 622, 670, 730, 696, 642, 646, 561, 596, 659, 734, 685, 584, 572, 657, 634, 609, 664, 560, 526, 607, 617, 614, 569, 610, 596, 495, 500, 615, 543, 521, 622, 639, 583, 566, 631, 664, 557, 535, 624, 534, 542, 522, 622, 610, 510, 568, 558, 518, 597, 585, 553, 551, 525, 539, 520, 555, 624, 675, 588, 531, 569, 557, 581, 527, 533, 625, 621, 490, 505, 605, 617, 566, 549, 541, 529, 543, 561, 581, 593, 557, 568, 605, 613, 618, 539, 577, 636, 558, 533, 433, 524, 585, 479, 540, 562, 569, 599, 562, 564, 520, 493, 649, 597, 586, 586, 556, 624, 575, 559, 582, 589, 679, 639, 563, 648, 608, 618, 602, 596, 561, 649, 608, 554, 590, 631, 594, 546, 703, 713, 648, 625, 630, 581, 589, 662, 613, 582, 589, 594, 567, 510, 608, 663, 438, 527, 676, 587, 475, 569, 655, 633, 474, 684, 829, 673, 503, 638, 849, 743, 550, 827, 921, 728, 648, 695, 879, 887, 641, 571, 634, 637, 632, 662, 743, 734, 593, 581, 592, 673, 626, 661, 617, 569, 608, 588, 511, 630, 532, 563, 583, 536, 477, 493, 535, 565, 513, 535, 514, 477, 464, 461, 493, 533, 497, 442, 473, 473, 526, 459, 456, 593, 572, 494, 591, 542, 485, 494, 539, 535, 570, 478, 459, 536, 467, 458, 555, 517, 542, 475, 425, 556, 488, 581, 614, 547, 511, 518, 525, 525, 450, 540, 578, 474, 471, 510, 576, 496, 407, 445, 445, 394, 465, 511, 436, 357, 375, 458, 444, 403, 433, 477, 451, 330, 381, 441, 474, 404, 382, 501, 483, 402, 414, 441, 434, 422, 436, 505, 438, 397]"
0.3929521441459656,0.10910187661647797,0.28159916400909424,-0.3749653697013855,-0.1454397439956665,0.24878887832164764,-0.791405200958252,-0.12503337860107422,0.06222724914550781,15.25,-0.12016963958740234,0.0,23.0,-0.09985637664794922,0.06308555603027344,21.75,-0.02418231964111328,0.1308917999267578,22.25,0.005715370178222656,0.6621837615966797,18.25,"[628, 564, 596, 580, 529, 578, 599, 565, 542, 552, 643, 613, 554, 563, 594, 554, 477, 486, 592, 586, 464, 474, 547, 539, 407, 436, 491, 493, 448, 434, 462, 464, 386, 531, 527, 462, 448, 482, 562, 448, 455, 519, 520, 435, 422, 465, 570, 530, 476, 510, 478, 428, 482, 518, 528, 486, 495, 510, 497, 473, 460, 511, 537, 530, 461, 502, 471, 491, 497, 496, 554, 504, 466, 476, 410, 455, 456, 458, 465, 434, 463, 460, 466, 455, 485, 472, 454, 440, 511, 409, 544, 607, 512, 510, 541, 563, 561, 503, 553, 529, 518, 538, 542, 586, 517, 574, 607, 497, 459, 541, 609, 586, 539, 593, 588, 536, 514, 545, 559, 586, 580, 586, 568, 586, 563, 597, 578, 574, 520, 510, 484, 497, 497, 514, 516, 517, 551, 497, 545, 560, 510, 597, 547, 544, 514, 533, 558, 536, 515, 546, 554, 537, 536, 499, 498, 473, 536, 536, 542, 540, 579, 486, 461, 567, 582, 475, 517, 585, 635, 645, 490, 527, 548, 562, 558, 599, 613, 515, 493, 513, 506, 561, 568, 615, 565, 531, 626, 648, 565, 608, 626, 574, 558, 512, 516, 558, 551, 531, 511, 510, 521, 558, 527, 541, 608, 573, 516, 550, 491, 505, 493, 476, 520, 541, 451, 431, 531, 563, 537, 460, 493, 475, 553, 530, 569, 558, 525, 550, 546, 503, 568, 564, 511, 465, 434, 547, 562, 503, 564, 516, 467, 575, 561, 452, 498, 596, 551, 475, 521, 632, 582, 545, 480, 576, 624, 471, 590, 734, 684, 646, 620, 745, 770, 561, 636, 763, 634, 634, 689, 841, 802, 580, 651, 659, 665, 714, 683, 804, 754, 696, 625, 508, 577, 634, 705, 573, 512, 631, 614, 606, 568, 622, 622, 553, 541, 566, 622, 708, 722, 664, 640, 676, 661, 648, 627, 785, 852, 737, 654, 781, 763, 656, 664, 740, 677, 550, 602, 739, 640, 577, 610, 610, 548, 581, 587, 652, 638, 574, 664, 650, 610, 614, 695, 731, 636, 582, 506, 549, 621, 610, 539, 578, 623, 523, 555, 518, 517, 544, 473, 517, 581, 544, 498, 558, 608, 596, 497, 547, 629, 605, 536, 648, 734, 654, 573, 571, 655, 604, 537, 666, 747, 621, 550, 651, 696, 573, 671, 972, 903, 595, 652, 758, 856, 668, 900, 1197, 924, 551, 765, 849, 849, 646, 681, 831, 685, 522, 629, 677, 687, 623, 574, 605, 649, 608, 518, 631, 693, 614, 848, 1312, 1239, 830, 795, 1047, 1066, 808, 1250, 1834, 1683, 1144, 1355, 1755, 1960, 1580, 1948, 1696, 2414, 1828, 1521, 1662, 2981, 3385, 3421, 4172, 6638, 4542, 1689, 2243, 6271, 7307, 4958, 8200, 11512, 7593, 2238, 4346, 10095, 10738, 5474, 5548, 8268, 5942, 2322, 3010, 7345, 9015, 3545, 3919, 7059, 4849, 1812, 2571, 7608, 8546, 1136, 2777, 3913, 2492, 853, 2588, 5028, 4531, 794, 1655, 1639, 859, 854, 1248, 1888, 1533, 993, 1443, 1123, 572, 763, 575, 771, 626, 753, 902, 821, 634, 649, 675, 746, 668, 641, 762, 756, 494, 626, 819, 881, 712, 626, 699, 673, 641, 647, 725, 720, 624, 646, 542, 608, 660, 583, 619, 621, 628, 652, 622, 642, 589, 547, 511, 524, 647, 698, 637, 636, 561, 515, 481, 677, 731, 615, 615, 576, 570, 563, 538, 643, 680, 519, 617, 606, 560, 560, 553, 611, 609, 518, 607, 616, 549, 616, 607, 559, 590, 521, 538, 515, 441, 560, 556, 531, 641, 665, 590, 607, 603, 610, 576, 489, 622, 656, 600, 607, 607, 618, 624, 563, 618, 586, 702, 673, 602, 554, 615, 667, 578, 794, 678, 683, 746, 564, 607, 690, 654, 774, 707, 626, 667, 654, 609, 568, 651, 653, 693, 649, 571, 599, 654, 587, 531, 711, 786, 835, 716, 713, 791, 742, 710, 644, 726, 680, 690, 745, 733, 661, 641, 611, 743, 714, 624, 716, 757, 730, 620, 545, 622, 657, 665, 638, 619, 659, 590, 598, 534, 534, 655, 598, 532, 574, 562, 598, 519, 551, 669, 631, 538, 559, 584, 651, 575, 578, 609, 577, 661, 676, 628, 603, 587, 500, 500, 517, 537, 558, 599, 632, 649, 669, 691, 656, 670, 668, 655, 695, 730, 785, 751, 776, 717, 675, 702, 699, 645, 656, 685, 730, 735, 635, 627, 646, 575, 656, 632, 629, 700, 765, 679, 575, 549, 611, 661, 603, 597, 689, 664, 681, 614, 666, 633, 591, 571, 611, 686, 601, 662, 703, 644, 567, 678, 634, 641, 605, 701, 742, 599, 572, 739, 689, 576, 740, 844, 776, 539, 754, 823, 732, 709, 871, 837, 737, 471, 778, 892, 750, 790, 678, 618, 509, 632, 655, 611, 622, 638, 613, 595, 567, 566, 493, 531, 612, 566, 679, 681, 676, 605, 578, 624, 633, 640, 674, 680, 600, 638, 622, 596, 660, 658, 576, 570, 536, 526, 550, 563, 552, 544, 508, 591, 607, 538, 548, 587, 495, 504, 664, 813, 759, 619, 601, 678, 582, 538, 731, 795, 715, 562, 588, 674, 599, 577, 584, 627, 557, 503, 569, 597, 547, 585, 605, 561, 616, 606, 611, 564, 623, 693, 561, 622, 645, 635, 649, 644, 647, 598, 676, 658, 604, 650, 661, 688, 576, 571, 570, 658, 691, 633, 518, 666, 728, 623, 571, 615, 594, 632, 568, 653, 714, 561, 648, 576, 568, 654, 688, 624, 666, 632, 707, 697, 614, 578, 640, 614, 600, 669, 628, 516, 664, 618, 559, 634, 653, 689, 553, 528, 548, 577, 522, 580, 569, 530, 733, 559, 526, 661, 587, 576, 582, 674, 660, 590, 653, 557, 555, 566, 554, 666, 589, 626, 541, 488, 653, 584, 512, 552, 553, 638, 555, 473, 550, 574, 517, 443, 616, 682, 572, 539, 590, 604, 529, 487, 583, 618, 507, 558, 527, 492, 531, 524, 539, 585, 558, 521, 584, 585, 553, 545, 512, 455, 411, 417, 466, 458, 431, 470, 506, 506, 482, 470, 489, 527, 468, 474, 468, 485, 417, 459, 478, 472, 439, 425, 509, 458, 432, 450, 464, 464, 422, 456, 439, 432, 382, 396, 446, 478, 419, 401, 525, 403, 416, 480, 469, 441, 391, 509, 443, 387, 485, 501, 446, 443, 488, 507, 505, 461, 411, 467, 434, 405, 419, 446]"
0.3171495795249939,0.11685732752084732,0.34782519936561584,-0.5340290069580078,-0.06984376907348633,0.35558921098709106,-0.8748651146888733,-0.12308990955352783,0.31528472900390625,22.0,-0.07101929187774658,0.5096912384033203,24.5,-0.030821919441223145,0.5189895629882812,16.25,-0.004357457160949707,0.4493236541748047,22.75,0.014525294303894043,-0.6367206573486328,24.0,"[527, 680, 713, 651, 547, 651, 711, 684, 547, 612, 700, 716, 611, 673, 698, 712, 565, 637, 623, 583, 526, 547, 597, 567, 498, 560, 588, 540, 552, 507, 473, 521, 417, 544, 583, 532, 505, 476, 483, 452, 508, 538, 477, 512, 526, 511, 539, 510, 517, 567, 536, 513, 529, 539, 535, 428, 558, 591, 659, 590, 511, 489, 492, 526, 557, 532, 496, 473, 475, 479, 481, 501, 554, 546, 512, 533, 542, 506, 483, 512, 559, 636, 570, 512, 509, 514, 538, 517, 525, 524, 481, 478, 480, 513, 518, 515, 557, 472, 594, 619, 566, 538, 531, 568, 600, 508, 533, 584, 579, 564, 558, 578, 589, 636, 612, 534, 572, 598, 630, 590, 511, 636, 605, 506, 504, 514, 568, 562, 397, 584, 626, 540, 467, 470, 624, 572, 470, 566, 571, 497, 490, 524, 549, 528, 494, 539, 578, 570, 541, 606, 551, 568, 493, 566, 612, 591, 568, 554, 627, 584, 572, 504, 515, 516, 507, 521, 598, 655, 612, 539, 463, 562, 554, 543, 558, 585, 555, 583, 558, 543, 493, 559, 601, 598, 562, 585, 594, 659, 536, 567, 589, 586, 466, 468, 498, 615, 557, 493, 527, 504, 513, 525, 536, 617, 586, 548, 559, 504, 532, 522, 535, 562, 589, 581, 540, 519, 603, 554, 581, 606, 671, 673, 597, 614, 478, 442, 550, 559, 554, 573, 540, 465, 565, 568, 563, 565, 589, 649, 575, 541, 557, 531, 457, 495, 539, 531, 486, 491, 546, 509, 393, 472, 630, 513, 353, 463, 622, 671, 590, 454, 663, 614, 570, 570, 696, 888, 726, 487, 651, 734, 668, 558, 624, 755, 720, 576, 645, 728, 668, 539, 639, 613, 593, 614, 598, 580, 612, 603, 668, 578, 624, 685, 641, 537, 544, 667, 559, 595, 703, 691, 587, 616, 583, 583, 637, 769, 828, 687, 589, 689, 670, 613, 678, 788, 772, 595, 637, 767, 834, 722, 629, 733, 585, 492, 566, 644, 647, 573, 595, 550, 480, 537, 546, 580, 625, 618, 533, 550, 609, 573, 540, 646, 574, 520, 562, 575, 669, 663, 553, 592, 695, 629, 499, 535, 592, 646, 584, 607, 609, 574, 594, 583, 593, 596, 599, 596, 620, 626, 606, 591, 528, 489, 530, 505, 642, 673, 559, 711, 691, 621, 613, 545, 606, 593, 644, 784, 676, 531, 586, 583, 493, 489, 653, 705, 647, 533, 555, 625, 585, 557, 587, 655, 562, 566, 542, 563, 636, 550, 836, 1130, 1059, 726, 656, 803, 921, 667, 1199, 1800, 1623, 957, 754, 1104, 1219, 900, 2070, 1517, 2255, 1974, 1158, 1246, 2737, 3251, 2903, 3369, 6067, 4426, 1846, 2418, 6589, 7223, 2646, 6940, 9782, 6056, 1920, 4708, 10315, 9854, 1914, 5736, 7533, 4278, 1395, 4447, 8804, 7947, 1303, 2570, 3432, 1970, 808, 2158, 4318, 4062, 999, 994, 1426, 1108, 705, 928, 1658, 1795, 800, 703, 707, 705, 567, 655, 828, 857, 675, 648, 632, 676, 619, 593, 673, 681, 620, 506, 686, 777, 668, 608, 753, 782, 623, 687, 714, 620, 655, 774, 793, 764, 618, 721, 662, 622, 677, 692, 660, 642, 559, 829, 813, 623, 596, 605, 637, 569, 652, 803, 772, 638, 639, 722, 698, 635, 632, 750, 715, 716, 636, 642, 562, 573, 710, 1052, 945, 709, 621, 592, 658, 583, 621, 831, 811, 689, 578, 548, 657, 560, 585, 519, 554, 596, 601, 601, 637, 589, 635, 495, 540, 645, 727, 541, 484, 601, 601, 607, 656, 690, 626, 615, 659, 580, 670, 620, 615, 601, 605, 609, 576, 593, 747, 577, 604, 706, 662, 688, 629, 714, 714, 667, 654, 755, 816, 789, 767, 758, 757, 874, 924, 859, 798, 728, 706, 706, 719, 810, 773, 640, 685, 682, 615, 638, 894, 900, 635, 637, 843, 791, 681, 566, 771, 749, 550, 668, 763, 725, 663, 629, 705, 618, 560, 653, 723, 695, 601, 620, 717, 584, 476, 569, 699, 712, 548, 573, 747, 573, 623, 745, 612, 534, 529, 635, 715, 666, 686, 768, 656, 467, 531, 605, 736, 650, 588, 682, 736, 529, 512, 616, 680, 640, 595, 569, 683, 662, 598, 656, 566, 598, 612, 521, 692, 742, 659, 590, 676, 639, 540, 455, 675, 783, 580, 540, 774, 615, 673, 665, 633, 672, 656, 811, 725, 582, 640, 615, 618, 631, 615, 766, 735, 673, 670, 580, 596, 692, 701, 736, 700, 669, 675, 648, 652, 639, 599, 623, 572, 638, 579, 615, 604, 546, 676, 706, 516, 485, 477, 521, 562, 509, 635, 669, 451, 604, 620, 545, 537, 488, 605, 618, 370, 540, 625, 526, 468, 542, 605, 502, 434, 532, 630, 516, 550, 622, 598, 516, 514, 518, 562, 510, 496, 562, 534, 500, 630, 591, 570, 519, 557, 605, 603, 584, 591, 560, 596, 599, 495, 550, 655, 614, 535, 507, 575, 598, 455, 471, 655, 632, 671, 526, 556, 609, 499, 521, 594, 644, 652, 611, 582, 554, 490, 542, 497, 557, 553, 500, 514, 595, 600, 596, 515, 541, 482, 502, 514, 600, 611, 544, 516, 507, 534, 502, 569, 621, 595, 577, 592, 573, 588, 553, 661, 707, 650, 594, 607, 604, 540, 566, 653, 679, 615, 644, 665, 572, 610, 645, 609, 609, 613, 681, 681, 599, 557, 510, 515, 565, 546, 539, 525, 565, 632, 522, 522, 590, 571, 488, 548, 592, 649, 518, 683, 553, 550, 531, 644, 771, 662, 610, 771, 610, 530, 544, 733, 881, 536, 550, 694, 638, 579, 548, 661, 709, 488, 538, 648, 647, 539, 527, 542, 501, 449, 428, 535, 647, 552, 468, 602, 530, 542, 591, 613, 605, 551, 440, 561, 569, 567, 573, 582, 525, 409, 502, 607, 589, 481, 519, 569, 600, 530, 545, 631, 590, 586, 546, 546, 616, 568, 476, 542, 638, 587, 608, 582, 574, 512, 508, 550, 571, 453, 507, 546, 522, 420, 448, 456, 392, 572, 505, 456, 453, 494, 514, 425, 481, 484, 467, 390, 448, 521, 494, 440, 492, 507, 515, 457, 442, 437, 425, 474, 505, 460, 464, 480, 496, 395, 441, 503, 514, 454, 457, 586, 467, 369, 420, 526, 584, 431, 458, 466, 435, 376, 397, 486, 486, 418, 474, 482, 448, 403, 416, 492, 472]"
0.23957788944244385,-0.005848444998264313,0.39549246430397034,-0.6140621304512024,-0.19437642395496368,0.32225602865219116,-0.7767985463142395,-0.06357467174530029,-0.6491661071777344,23.25,-0.018084406852722168,0.25806427001953125,18.0,-0.013077616691589355,0.32486915588378906,22.75,-0.004637598991394043,0.327301025390625,22.5,0.01639091968536377,0.3963947296142578,17.5,"[609, 517, 617, 692, 663, 693, 616, 515, 531, 624, 694, 722, 621, 601, 583, 485, 565, 552, 627, 635, 572, 525, 546, 589, 532, 511, 484, 524, 547, 479, 494, 559, 449, 434, 431, 460, 458, 371, 456, 515, 472, 464, 427, 482, 539, 478, 472, 535, 487, 520, 572, 455, 444, 523, 526, 507, 559, 556, 536, 521, 505, 519, 479, 506, 498, 474, 384, 351, 464, 459, 427, 408, 489, 504, 436, 429, 454, 509, 550, 459, 545, 490, 450, 506, 443, 442, 505, 549, 563, 522, 524, 504, 483, 480, 501, 509, 436, 507, 563, 509, 433, 491, 501, 461, 529, 635, 569, 405, 532, 620, 529, 467, 501, 635, 551, 438, 571, 589, 572, 532, 577, 622, 518, 473, 570, 601, 569, 552, 489, 539, 450, 504, 542, 504, 478, 471, 470, 545, 554, 494, 495, 509, 465, 394, 544, 538, 608, 511, 572, 694, 550, 443, 621, 583, 506, 512, 605, 602, 492, 507, 545, 530, 517, 530, 500, 512, 471, 462, 571, 478, 547, 641, 567, 540, 582, 543, 508, 478, 593, 596, 601, 535, 564, 607, 510, 522, 596, 513, 508, 558, 635, 626, 521, 525, 530, 525, 478, 496, 522, 531, 501, 592, 603, 501, 504, 598, 601, 535, 471, 533, 561, 522, 563, 553, 570, 525, 482, 562, 606, 557, 538, 555, 598, 522, 470, 561, 592, 449, 542, 531, 492, 507, 560, 549, 495, 524, 609, 493, 481, 606, 505, 632, 576, 530, 616, 586, 555, 498, 577, 603, 587, 613, 596, 567, 569, 555, 528, 557, 611, 621, 582, 549, 632, 627, 540, 564, 575, 582, 576, 489, 628, 651, 701, 723, 629, 527, 552, 563, 592, 545, 649, 618, 581, 505, 542, 539, 594, 611, 531, 563, 565, 569, 559, 524, 616, 610, 701, 914, 842, 613, 683, 795, 762, 658, 865, 1101, 919, 630, 878, 1023, 979, 819, 821, 901, 814, 684, 823, 852, 874, 810, 675, 742, 792, 671, 644, 629, 672, 729, 548, 596, 601, 540, 529, 559, 550, 568, 526, 599, 542, 483, 601, 607, 609, 577, 486, 634, 604, 487, 534, 615, 639, 546, 583, 647, 554, 573, 562, 615, 683, 617, 678, 655, 670, 731, 586, 561, 686, 666, 567, 556, 602, 572, 520, 583, 652, 595, 574, 590, 629, 585, 517, 591, 564, 564, 504, 612, 682, 565, 437, 525, 627, 598, 459, 606, 621, 521, 470, 551, 588, 559, 527, 621, 590, 536, 552, 594, 608, 546, 579, 683, 659, 565, 597, 580, 543, 578, 637, 772, 726, 632, 631, 635, 704, 628, 604, 756, 862, 730, 652, 628, 846, 746, 896, 1303, 1548, 1043, 683, 1040, 1445, 1369, 1751, 4512, 5484, 3134, 981, 2574, 5054, 4603, 2085, 7043, 8687, 4766, 1195, 4147, 8548, 7674, 1843, 6252, 7852, 4338, 1061, 3864, 8050, 7275, 1130, 3231, 3932, 2266, 739, 2313, 4443, 3885, 795, 1155, 1289, 893, 603, 1035, 1563, 1288, 611, 685, 578, 596, 610, 721, 815, 630, 582, 741, 696, 609, 600, 690, 725, 578, 728, 755, 655, 676, 709, 700, 680, 609, 682, 683, 577, 633, 612, 643, 610, 558, 599, 640, 542, 561, 499, 504, 534, 563, 675, 521, 554, 609, 575, 579, 539, 625, 655, 538, 608, 638, 540, 559, 600, 668, 621, 551, 646, 623, 507, 536, 599, 626, 587, 550, 519, 539, 542, 559, 652, 644, 566, 536, 586, 606, 595, 582, 688, 694, 623, 611, 515, 651, 629, 528, 581, 623, 597, 549, 478, 600, 714, 553, 560, 652, 550, 511, 596, 563, 560, 476, 491, 560, 586, 544, 704, 654, 511, 484, 549, 630, 576, 539, 673, 637, 557, 525, 505, 631, 554, 607, 716, 671, 480, 625, 677, 537, 500, 558, 610, 630, 506, 550, 628, 505, 619, 626, 578, 582, 544, 567, 595, 536, 659, 681, 511, 524, 612, 639, 562, 490, 780, 747, 631, 602, 678, 772, 656, 615, 722, 719, 622, 691, 659, 630, 650, 649, 712, 665, 566, 651, 689, 621, 647, 671, 689, 618, 513, 568, 513, 501, 557, 615, 675, 594, 614, 610, 503, 534, 652, 709, 617, 605, 617, 595, 621, 645, 660, 673, 755, 679, 642, 656, 665, 674, 628, 695, 738, 633, 605, 648, 646, 640, 606, 688, 647, 593, 514, 535, 621, 669, 598, 588, 499, 548, 598, 575, 583, 623, 583, 575, 602, 564, 532, 589, 572, 536, 507, 618, 502, 615, 582, 516, 499, 425, 467, 501, 547, 611, 636, 580, 507, 566, 542, 494, 575, 582, 525, 486, 605, 633, 583, 548, 525, 530, 482, 540, 649, 584, 525, 511, 536, 564, 533, 522, 545, 602, 539, 491, 598, 555, 533, 658, 636, 563, 515, 551, 651, 567, 524, 560, 598, 558, 482, 556, 659, 630, 546, 553, 621, 593, 508, 628, 676, 681, 502, 463, 639, 645, 562, 584, 531, 522, 480, 474, 563, 551, 507, 480, 522, 534, 469, 440, 540, 611, 486, 477, 579, 552, 492, 544, 622, 618, 518, 524, 563, 574, 549, 585, 597, 591, 497, 492, 554, 534, 527, 535, 593, 579, 600, 585, 606, 589, 531, 581, 617, 551, 518, 567, 607, 573, 551, 654, 633, 552, 590, 608, 583, 579, 587, 583, 515, 525, 503, 532, 548, 505, 570, 513, 535, 542, 553, 603, 590, 615, 580, 504, 527, 547, 516, 611, 647, 610, 538, 559, 590, 530, 467, 612, 579, 612, 564, 569, 559, 496, 462, 501, 599, 527, 528, 583, 500, 463, 520, 543, 615, 529, 548, 619, 541, 518, 536, 548, 667, 629, 623, 593, 581, 599, 612, 595, 680, 629, 577, 589, 516, 676, 665, 699, 603, 521, 443, 510, 521, 515, 498, 587, 517, 540, 542, 510, 548, 460, 456, 546, 509, 530, 545, 591, 561, 480, 454, 486, 491, 523, 578, 608, 461, 486, 568, 462, 452, 446, 503, 531, 421, 440, 563, 478, 468, 407, 492, 410, 369, 449, 375, 483, 488, 478, 440, 407, 449, 503, 426, 456, 371, 389, 468, 468, 415, 436, 446, 428, 380, 421, 510, 465, 373, 320, 406, 474, 391, 429, 406, 384, 398, 391, 333, 382, 360, 449, 416, 421, 420, 437, 434, 350, 451, 535, 511, 448, 450, 447, 489, 451, 436, 535, 534, 434, 427, 479, 495, 469]"
0.30145925283432007,-0.3509615361690521,-0.04542282968759537,-0.0857892781496048,-0.4715919494628906,-0.33551087975502014,0.10008129477500916,-0.10407185554504395,0.5146980285644531,18.0,-0.0863335132598877,-0.5208492279052734,17.0,-0.05114293098449707,0.6467342376708984,20.75,-0.007512331008911133,-0.4524707794189453,20.0,0.018952131271362305,0.6508827209472656,17.5,"[550, 695, 776, 645, 653, 642, 774, 700, 534, 586, 636, 598, 640, 620, 661, 682, 492, 491, 517, 539, 545, 558, 555, 577, 446, 484, 504, 488, 397, 415, 465, 471, 389, 420, 562, 489, 415, 458, 523, 524, 485, 492, 533, 470, 450, 514, 516, 490, 439, 417, 401, 503, 525, 511, 508, 462, 497, 480, 430, 560, 562, 539, 593, 572, 548, 522, 453, 478, 490, 455, 590, 643, 584, 483, 446, 506, 573, 518, 594, 638, 542, 487, 466, 540, 476, 512, 575, 546, 500, 536, 480, 526, 523, 470, 445, 537, 510, 575, 589, 546, 584, 476, 509, 565, 525, 521, 633, 643, 603, 605, 574, 633, 530, 472, 535, 590, 505, 414, 577, 620, 521, 505, 596, 558, 519, 553, 616, 566, 469, 554, 577, 473, 573, 549, 489, 496, 539, 534, 551, 464, 511, 548, 453, 436, 579, 678, 600, 490, 492, 549, 496, 482, 528, 638, 602, 512, 521, 559, 556, 475, 488, 543, 505, 535, 471, 411, 487, 511, 573, 505, 615, 638, 562, 553, 566, 618, 518, 442, 543, 562, 534, 554, 517, 561, 627, 517, 583, 559, 631, 595, 458, 620, 569, 456, 525, 537, 557, 529, 484, 613, 613, 472, 503, 567, 590, 427, 446, 585, 576, 512, 563, 581, 552, 457, 558, 657, 645, 569, 627, 587, 529, 493, 623, 744, 536, 534, 568, 501, 454, 453, 579, 633, 548, 549, 527, 552, 530, 553, 515, 490, 458, 469, 599, 609, 464, 517, 626, 534, 532, 545, 600, 566, 508, 519, 557, 562, 540, 435, 457, 492, 506, 416, 429, 580, 510, 494, 521, 558, 581, 458, 557, 606, 463, 530, 537, 545, 547, 574, 559, 510, 447, 487, 592, 575, 546, 518, 550, 530, 528, 526, 647, 642, 583, 577, 539, 533, 585, 495, 602, 626, 600, 538, 517, 602, 531, 539, 491, 545, 627, 579, 462, 515, 473, 499, 483, 530, 500, 514, 536, 483, 605, 511, 513, 569, 557, 520, 503, 569, 612, 572, 593, 618, 647, 581, 552, 623, 601, 679, 591, 558, 633, 628, 605, 563, 756, 770, 682, 584, 678, 685, 668, 599, 607, 599, 556, 545, 607, 610, 535, 550, 611, 595, 516, 524, 575, 559, 468, 509, 668, 706, 569, 629, 650, 611, 628, 596, 763, 938, 833, 695, 750, 673, 761, 587, 941, 1236, 1134, 749, 765, 925, 1028, 739, 935, 1101, 1100, 805, 729, 861, 978, 853, 657, 752, 787, 685, 562, 583, 691, 627, 587, 630, 638, 545, 497, 526, 626, 638, 749, 782, 947, 746, 581, 630, 975, 1065, 877, 939, 1096, 887, 605, 804, 1163, 1142, 1186, 968, 1606, 1313, 766, 645, 1495, 1890, 1820, 3579, 4815, 3042, 1142, 2344, 4838, 4721, 2006, 5467, 6269, 3371, 1299, 3721, 6601, 5502, 1465, 4268, 4374, 2070, 1134, 2991, 4625, 3328, 846, 1713, 1720, 963, 762, 1365, 1710, 1118, 676, 723, 736, 608, 642, 733, 643, 568, 589, 618, 597, 539, 490, 562, 535, 535, 604, 681, 612, 468, 557, 691, 610, 527, 655, 763, 661, 521, 602, 711, 720, 642, 611, 665, 635, 539, 718, 763, 577, 549, 616, 592, 617, 547, 629, 625, 612, 598, 622, 687, 615, 533, 616, 570, 561, 550, 634, 671, 580, 507, 584, 614, 557, 516, 597, 611, 632, 558, 559, 638, 642, 602, 711, 643, 603, 595, 695, 609, 621, 750, 570, 585, 640, 566, 559, 538, 642, 622, 605, 563, 592, 526, 510, 538, 575, 636, 567, 542, 630, 537, 496, 544, 625, 641, 631, 619, 608, 618, 560, 618, 664, 663, 647, 724, 704, 724, 655, 612, 695, 653, 518, 618, 660, 606, 609, 659, 711, 564, 598, 566, 599, 586, 572, 543, 554, 558, 624, 606, 556, 524, 574, 613, 563, 574, 730, 673, 496, 537, 619, 614, 565, 599, 654, 592, 560, 715, 669, 637, 702, 658, 608, 618, 574, 632, 641, 648, 576, 501, 605, 599, 620, 623, 604, 640, 604, 564, 718, 563, 571, 644, 698, 706, 577, 611, 646, 621, 623, 613, 662, 612, 571, 680, 726, 708, 607, 650, 681, 494, 490, 642, 655, 685, 687, 712, 674, 558, 533, 677, 668, 666, 645, 748, 714, 646, 594, 662, 654, 686, 662, 697, 610, 570, 633, 659, 621, 618, 550, 523, 526, 470, 551, 580, 642, 623, 569, 576, 581, 576, 559, 535, 687, 803, 595, 538, 647, 717, 778, 656, 664, 682, 597, 551, 596, 660, 676, 630, 499, 520, 560, 527, 554, 537, 544, 529, 469, 494, 473, 501, 547, 567, 530, 430, 452, 442, 454, 564, 577, 500, 530, 504, 535, 575, 610, 666, 614, 504, 500, 593, 529, 492, 562, 587, 570, 450, 501, 579, 560, 564, 576, 569, 570, 531, 545, 589, 579, 517, 561, 623, 594, 565, 506, 542, 609, 511, 540, 572, 522, 485, 487, 561, 576, 577, 609, 515, 519, 566, 517, 562, 549, 591, 591, 465, 441, 538, 550, 502, 629, 579, 604, 504, 449, 532, 601, 620, 598, 570, 584, 484, 633, 691, 572, 552, 526, 529, 526, 528, 566, 671, 578, 529, 566, 549, 586, 581, 567, 622, 645, 616, 590, 512, 582, 603, 578, 596, 640, 603, 582, 585, 468, 538, 666, 598, 576, 594, 602, 686, 633, 536, 631, 674, 631, 653, 584, 612, 553, 523, 538, 584, 512, 496, 528, 570, 489, 465, 529, 612, 494, 459, 604, 612, 567, 563, 632, 601, 569, 548, 486, 625, 564, 552, 623, 605, 641, 586, 486, 550, 577, 580, 533, 481, 601, 603, 504, 632, 709, 576, 488, 549, 728, 744, 602, 595, 608, 629, 614, 570, 706, 703, 589, 558, 591, 632, 643, 643, 617, 585, 539, 559, 612, 562, 515, 576, 605, 572, 525, 517, 496, 511, 479, 404, 513, 523, 560, 458, 451, 497, 482, 477, 479, 559, 552, 579, 545, 527, 485, 491, 514, 481, 499, 589, 511, 418, 403, 435, 537, 449, 476, 515, 510, 420, 465, 446, 447, 435, 434, 407, 419, 427, 431, 440, 460, 426, 403, 449, 441, 406, 439, 458, 484, 437, 421, 423, 426, 349, 412, 413, 417, 455, 411, 377, 385, 364, 397, 410, 452, 497, 472, 462, 404, 373, 360, 407, 421, 471, 412, 482, 369, 376, 409, 445, 416, 387]"
0.2623082995414734,-0.2848729193210602,0.07860949635505676,-0.09826993197202682,-0.1767304241657257,0.058375775814056396,0.09585341811180115,-0.2967257499694824,-1.0273933410644531,17.25,-0.17069768905639648,-0.8932113647460938,20.0,-0.09931516647338867,0.4470348358154297,20.25,0.006542682647705078,0.25734901428222656,17.75,0.027142047882080078,0.2616405487060547,15.5,"[573, 616, 600, 621, 751, 617, 602, 620, 550, 563, 526, 522, 560, 589, 581, 608, 566, 616, 569, 496, 562, 621, 594, 577, 652, 589, 529, 497, 571, 589, 548, 586, 482, 473, 433, 443, 500, 542, 500, 444, 570, 575, 466, 460, 508, 543, 536, 507, 494, 596, 534, 436, 499, 523, 480, 449, 520, 522, 528, 514, 549, 506, 481, 559, 516, 416, 471, 586, 544, 476, 603, 601, 539, 499, 460, 467, 442, 494, 618, 577, 595, 536, 484, 517, 539, 519, 604, 654, 587, 573, 518, 522, 535, 510, 551, 584, 506, 521, 500, 496, 466, 456, 450, 463, 522, 544, 620, 638, 583, 531, 515, 585, 483, 582, 629, 610, 538, 460, 518, 535, 499, 536, 549, 521, 500, 485, 471, 472, 522, 499, 479, 496, 506, 469, 453, 511, 593, 562, 570, 581, 563, 454, 450, 587, 555, 618, 580, 505, 477, 541, 572, 549, 412, 525, 489, 453, 479, 598, 609, 502, 413, 486, 526, 481, 476, 501, 521, 493, 453, 552, 520, 492, 515, 504, 482, 466, 543, 633, 632, 525, 484, 467, 528, 524, 572, 563, 565, 567, 563, 598, 561, 452, 537, 511, 565, 536, 496, 566, 532, 527, 539, 504, 550, 539, 556, 588, 485, 486, 549, 473, 576, 554, 558, 588, 544, 571, 472, 513, 530, 528, 545, 552, 547, 564, 419, 461, 601, 553, 568, 527, 500, 511, 512, 500, 548, 635, 680, 604, 456, 518, 501, 501, 531, 563, 559, 570, 587, 599, 591, 543, 514, 545, 580, 538, 518, 610, 525, 518, 515, 501, 564, 634, 537, 561, 546, 631, 599, 467, 580, 666, 622, 549, 573, 609, 591, 501, 417, 551, 576, 487, 536, 568, 565, 534, 511, 511, 576, 597, 477, 609, 623, 513, 538, 512, 528, 540, 520, 655, 615, 508, 602, 584, 594, 593, 545, 501, 466, 550, 548, 531, 598, 594, 508, 492, 503, 515, 455, 525, 638, 602, 535, 511, 543, 533, 512, 526, 568, 600, 621, 641, 577, 559, 633, 603, 521, 567, 544, 568, 587, 584, 639, 625, 489, 483, 605, 587, 562, 611, 678, 575, 491, 535, 609, 515, 532, 611, 609, 555, 490, 556, 702, 632, 624, 636, 566, 562, 585, 603, 694, 698, 679, 631, 619, 632, 634, 600, 658, 802, 706, 637, 677, 703, 644, 602, 636, 684, 573, 561, 571, 657, 566, 520, 641, 599, 573, 555, 509, 560, 502, 512, 511, 590, 671, 692, 554, 603, 607, 531, 558, 983, 1093, 795, 619, 764, 1009, 874, 1093, 2424, 2433, 1187, 876, 1276, 1865, 1468, 995, 2750, 2880, 1385, 915, 1130, 2185, 1886, 780, 2114, 2961, 1889, 672, 1292, 2643, 2549, 1254, 4456, 6199, 3862, 845, 2753, 5815, 5492, 688, 3829, 4758, 2652, 629, 2456, 4661, 4010, 808, 2337, 2883, 1646, 650, 1808, 3439, 3002, 915, 1340, 1946, 1353, 589, 1245, 2320, 2256, 954, 951, 832, 730, 652, 961, 1224, 1102, 843, 957, 710, 588, 620, 655, 729, 639, 746, 849, 662, 489, 559, 616, 621, 503, 656, 787, 630, 549, 661, 609, 568, 536, 568, 651, 697, 670, 637, 610, 603, 602, 572, 605, 665, 618, 557, 564, 599, 602, 655, 667, 614, 551, 655, 654, 593, 636, 605, 830, 725, 599, 642, 617, 588, 551, 508, 712, 733, 611, 602, 705, 722, 574, 574, 496, 497, 544, 566, 573, 506, 534, 568, 547, 546, 487, 512, 589, 477, 464, 451, 576, 616, 490, 546, 599, 509, 445, 544, 626, 606, 542, 569, 641, 666, 560, 729, 663, 560, 578, 712, 713, 703, 636, 596, 597, 494, 574, 696, 614, 612, 573, 594, 556, 493, 566, 643, 532, 528, 559, 662, 753, 553, 534, 685, 585, 531, 571, 610, 689, 533, 554, 702, 580, 567, 587, 603, 561, 630, 673, 605, 545, 602, 623, 617, 487, 459, 602, 606, 513, 552, 641, 635, 485, 498, 678, 601, 472, 611, 708, 584, 523, 609, 680, 574, 482, 562, 611, 577, 605, 716, 678, 558, 569, 643, 680, 558, 587, 661, 571, 510, 537, 607, 670, 641, 689, 585, 593, 667, 664, 669, 633, 608, 601, 675, 589, 629, 618, 593, 640, 568, 561, 612, 634, 588, 573, 617, 602, 590, 626, 618, 613, 587, 547, 618, 619, 574, 641, 667, 631, 595, 577, 563, 625, 551, 606, 654, 614, 615, 549, 585, 566, 595, 670, 690, 627, 651, 656, 634, 633, 582, 623, 595, 658, 663, 546, 599, 598, 602, 540, 513, 682, 681, 588, 578, 610, 614, 513, 524, 618, 571, 557, 546, 585, 617, 607, 539, 569, 543, 590, 609, 593, 629, 592, 496, 491, 566, 497, 523, 628, 652, 615, 545, 571, 527, 541, 559, 559, 663, 605, 549, 603, 620, 559, 533, 593, 512, 490, 521, 593, 583, 475, 487, 582, 571, 521, 490, 539, 604, 540, 528, 600, 578, 533, 535, 519, 602, 596, 543, 556, 533, 476, 455, 580, 665, 622, 556, 498, 566, 564, 660, 675, 660, 627, 593, 572, 496, 532, 675, 715, 631, 530, 546, 572, 524, 537, 621, 605, 553, 544, 631, 662, 595, 578, 538, 550, 554, 554, 522, 558, 583, 575, 534, 528, 559, 627, 534, 497, 517, 616, 617, 463, 529, 566, 514, 470, 626, 675, 646, 533, 636, 637, 543, 561, 588, 598, 526, 446, 575, 550, 519, 565, 603, 595, 493, 465, 585, 574, 464, 520, 609, 543, 472, 485, 510, 537, 422, 491, 521, 583, 592, 512, 532, 528, 504, 467, 515, 616, 620, 536, 575, 598, 548, 458, 559, 588, 535, 531, 598, 526, 545, 607, 504, 563, 518, 505, 566, 528, 504, 449, 574, 618, 581, 554, 612, 608, 539, 498, 515, 631, 641, 493, 498, 585, 565, 523, 510, 546, 549, 532, 463, 495, 477, 490, 568, 452, 429, 473, 481, 437, 417, 556, 490, 457, 483, 484, 464, 451, 417, 469, 486, 484, 514, 457, 459, 495, 443, 443, 491, 431, 525, 556, 441, 414, 489, 510, 459, 413, 558, 561, 542, 442, 521, 590, 409, 480, 546, 486, 455, 462, 479, 490, 417, 412, 421, 439, 462, 440, 441, 442, 353, 418, 401, 416, 420, 386, 385, 388, 341, 313, 374, 402, 355, 308, 334, 362, 413, 432, 435, 410, 377, 362, 368, 401]"
0.2750367224216461,-0.1747433841228485,0.08787941932678223,0.1247837245464325,-0.1269395351409912,-0.008578658103942871,0.28938233852386475,-0.12554967403411865,-0.12874603271484375,18.75,-0.08563840389251709,-0.5229949951171875,26.0,-0.06990277767181396,0.6524562835693359,25.25,0.012065529823303223,0.5238533020019531,26.0,0.1279369592666626,0.19769668579101562,19.75,"[485, 554, 615, 630, 609, 628, 618, 552, 541, 528, 537, 577, 531, 595, 669, 558, 534, 554, 522, 625, 640, 559, 592, 612, 475, 484, 521, 556, 527, 473, 569, 574, 553, 568, 549, 522, 491, 503, 618, 605, 522, 487, 464, 541, 539, 479, 503, 555, 605, 526, 460, 474, 567, 495, 446, 547, 632, 549, 478, 516, 535, 504, 480, 560, 510, 433, 472, 578, 554, 464, 431, 536, 416, 535, 536, 532, 584, 512, 522, 527, 517, 526, 533, 528, 478, 490, 557, 534, 500, 546, 517, 489, 495, 468, 515, 491, 581, 500, 484, 514, 504, 480, 526, 552, 601, 565, 586, 604, 464, 466, 487, 565, 484, 483, 398, 459, 467, 481, 474, 445, 635, 590, 523, 523, 528, 568, 542, 559, 548, 543, 540, 494, 525, 573, 546, 557, 600, 586, 546, 495, 582, 557, 527, 544, 550, 396, 562, 623, 569, 500, 549, 644, 522, 534, 528, 553, 542, 482, 509, 502, 540, 537, 554, 518, 513, 558, 538, 547, 593, 582, 538, 500, 550, 621, 505, 492, 622, 663, 639, 578, 628, 695, 516, 566, 631, 668, 559, 551, 652, 630, 532, 627, 562, 525, 565, 544, 470, 421, 517, 609, 523, 553, 563, 455, 559, 615, 572, 573, 570, 617, 614, 528, 539, 645, 673, 585, 571, 543, 598, 557, 584, 547, 578, 586, 563, 498, 477, 544, 537, 479, 435, 552, 527, 495, 491, 607, 564, 518, 504, 489, 466, 525, 572, 592, 533, 504, 506, 494, 578, 619, 589, 623, 690, 637, 552, 574, 553, 588, 594, 650, 622, 564, 558, 590, 584, 497, 422, 527, 603, 557, 494, 548, 602, 467, 487, 550, 563, 561, 552, 638, 599, 524, 513, 583, 491, 504, 584, 618, 504, 555, 544, 577, 502, 477, 535, 503, 435, 509, 597, 606, 474, 476, 591, 547, 421, 471, 513, 543, 571, 539, 523, 531, 401, 414, 494, 560, 589, 576, 536, 489, 485, 508, 585, 550, 509, 514, 510, 561, 578, 513, 542, 560, 553, 564, 542, 610, 622, 591, 536, 573, 582, 593, 533, 544, 602, 599, 569, 539, 586, 581, 561, 534, 622, 569, 692, 697, 617, 571, 628, 709, 559, 692, 846, 813, 535, 564, 649, 602, 586, 682, 782, 716, 634, 637, 609, 562, 462, 625, 661, 590, 611, 607, 572, 491, 602, 638, 556, 569, 682, 624, 563, 543, 604, 630, 647, 660, 637, 697, 573, 570, 566, 497, 635, 703, 578, 622, 678, 616, 522, 565, 600, 607, 603, 642, 627, 628, 763, 870, 884, 677, 551, 613, 701, 751, 847, 1484, 1531, 889, 626, 833, 1166, 976, 1224, 2983, 2821, 1194, 842, 1804, 2562, 1660, 2988, 5359, 5097, 2737, 1644, 3211, 4693, 3476, 4139, 10495, 11745, 6333, 2048, 6296, 11124, 9105, 3205, 11076, 11954, 5794, 1587, 7325, 12347, 9338, 1816, 5037, 4898, 2297, 1098, 3811, 5773, 3930, 847, 1324, 1365, 1012, 635, 1102, 1553, 1173, 615, 813, 770, 692, 604, 832, 939, 743, 639, 743, 735, 622, 640, 627, 646, 675, 651, 632, 677, 607, 522, 558, 651, 725, 697, 671, 722, 687, 662, 602, 694, 754, 608, 617, 634, 576, 590, 580, 623, 595, 515, 559, 551, 570, 602, 671, 727, 617, 585, 517, 530, 636, 570, 608, 589, 583, 653, 521, 525, 604, 602, 642, 547, 604, 570, 546, 560, 583, 566, 563, 582, 606, 660, 533, 570, 671, 630, 511, 543, 663, 655, 613, 591, 581, 639, 597, 500, 564, 646, 687, 656, 613, 586, 563, 488, 502, 570, 528, 559, 585, 513, 500, 543, 515, 611, 552, 569, 540, 536, 550, 581, 602, 652, 574, 683, 722, 644, 590, 612, 681, 586, 554, 737, 744, 582, 536, 613, 651, 632, 549, 746, 753, 636, 589, 676, 645, 785, 688, 696, 788, 746, 636, 667, 695, 597, 618, 671, 579, 634, 600, 646, 660, 454, 525, 659, 547, 528, 598, 639, 563, 530, 497, 621, 629, 588, 616, 583, 561, 584, 592, 639, 680, 648, 610, 538, 549, 555, 606, 641, 585, 575, 646, 679, 558, 509, 539, 523, 501, 639, 613, 641, 584, 491, 579, 626, 541, 524, 591, 576, 562, 587, 562, 545, 567, 603, 669, 662, 622, 761, 665, 580, 642, 655, 711, 691, 734, 900, 860, 715, 643, 680, 772, 781, 810, 724, 736, 678, 555, 633, 662, 653, 693, 623, 616, 548, 481, 517, 552, 503, 584, 654, 568, 615, 566, 603, 580, 596, 758, 545, 609, 684, 645, 601, 624, 785, 763, 677, 658, 666, 633, 540, 580, 686, 754, 649, 613, 571, 565, 589, 515, 461, 613, 645, 594, 636, 603, 661, 643, 589, 660, 603, 626, 627, 642, 636, 628, 578, 539, 549, 562, 530, 542, 508, 465, 544, 595, 581, 510, 498, 506, 586, 665, 589, 564, 574, 535, 583, 518, 629, 700, 592, 604, 713, 606, 522, 592, 696, 691, 558, 648, 661, 620, 521, 577, 688, 643, 492, 531, 549, 548, 574, 544, 582, 647, 536, 513, 564, 575, 505, 514, 566, 602, 517, 493, 686, 593, 495, 555, 601, 539, 572, 578, 589, 594, 554, 539, 533, 568, 570, 589, 655, 604, 596, 558, 549, 672, 587, 543, 637, 722, 569, 534, 591, 644, 628, 545, 595, 491, 522, 635, 762, 670, 540, 590, 524, 549, 568, 622, 645, 576, 585, 601, 552, 586, 601, 573, 590, 686, 656, 573, 709, 628, 624, 632, 640, 679, 695, 702, 699, 588, 575, 593, 608, 564, 664, 767, 527, 736, 737, 555, 494, 552, 693, 745, 674, 1119, 1145, 768, 545, 779, 1233, 1145, 664, 1017, 1138, 748, 553, 803, 1298, 1213, 603, 518, 648, 667, 611, 585, 848, 843, 527, 515, 434, 471, 523, 470, 514, 529, 503, 613, 533, 522, 550, 621, 610, 483, 570, 493, 589, 618, 547, 500, 531, 660, 602, 564, 578, 543, 564, 485, 443, 588, 520, 528, 493, 498, 503, 478, 460, 524, 470, 514, 540, 458, 454, 485, 461, 433, 411, 459, 442, 416, 431, 428, 433, 401, 426, 418, 488, 434, 397, 377, 433, 457, 458, 442, 386, 369, 458, 481, 445, 409, 434, 492, 431, 378, 507, 514, 481, 459, 422, 552, 482, 360, 476, 478, 430, 387, 385, 419, 465, 450, 433, 412, 466, 448]"
0.2547874450683594,-0.13225772976875305,-0.10912727564573288,0.0824420154094696,-0.17656250298023224,-0.2953481376171112,0.15903200209140778,-0.2259913682937622,-0.7656097412109375,17.75,-0.12099182605743408,-0.5119800567626953,16.75,-0.04803574085235596,-0.5388736724853516,18.25,-0.01928246021270752,0.0,21.0,0.07298552989959717,0.38280487060546875,16.25,"[576, 594, 559, 511, 465, 511, 562, 593, 656, 663, 571, 564, 604, 592, 576, 566, 528, 575, 545, 454, 528, 629, 527, 420, 488, 487, 505, 473, 512, 509, 430, 475, 486, 444, 515, 501, 517, 466, 454, 534, 480, 468, 549, 518, 502, 532, 536, 526, 508, 497, 541, 586, 495, 537, 555, 482, 504, 508, 479, 479, 494, 474, 512, 483, 508, 481, 436, 423, 451, 433, 444, 467, 584, 518, 464, 411, 470, 530, 448, 457, 540, 561, 534, 486, 503, 528, 480, 467, 503, 564, 532, 498, 523, 519, 518, 439, 473, 528, 479, 483, 509, 493, 543, 513, 440, 462, 476, 492, 496, 521, 615, 539, 435, 517, 501, 491, 503, 508, 544, 504, 598, 592, 587, 613, 546, 533, 539, 537, 446, 530, 544, 526, 399, 442, 522, 501, 427, 506, 612, 539, 450, 500, 518, 479, 546, 519, 445, 534, 534, 430, 449, 535, 620, 600, 496, 505, 501, 537, 526, 534, 599, 542, 509, 488, 450, 528, 542, 586, 548, 552, 549, 506, 470, 566, 608, 565, 596, 601, 515, 488, 546, 586, 557, 524, 555, 543, 555, 533, 433, 459, 499, 514, 493, 427, 418, 533, 500, 437, 434, 464, 592, 524, 451, 485, 489, 551, 529, 512, 480, 454, 475, 542, 530, 493, 554, 571, 488, 415, 488, 681, 577, 438, 479, 527, 576, 522, 556, 592, 572, 616, 551, 549, 505, 546, 576, 568, 585, 640, 588, 524, 517, 515, 467, 531, 573, 597, 496, 499, 546, 486, 472, 524, 580, 570, 489, 503, 464, 452, 491, 445, 482, 554, 531, 483, 441, 501, 587, 503, 506, 529, 547, 523, 492, 618, 533, 535, 600, 592, 538, 462, 581, 652, 579, 559, 599, 621, 487, 443, 622, 567, 514, 462, 533, 575, 528, 572, 589, 455, 495, 532, 593, 573, 519, 604, 557, 495, 476, 581, 575, 525, 443, 461, 619, 527, 642, 638, 558, 549, 578, 637, 545, 484, 595, 559, 509, 455, 547, 667, 559, 581, 690, 626, 594, 546, 506, 585, 610, 455, 571, 677, 578, 545, 620, 600, 681, 573, 522, 647, 578, 510, 509, 624, 608, 584, 478, 583, 600, 527, 512, 531, 606, 533, 461, 633, 631, 557, 553, 584, 624, 485, 580, 619, 541, 619, 635, 618, 639, 557, 550, 650, 703, 651, 646, 665, 575, 550, 501, 608, 652, 588, 599, 574, 543, 618, 496, 564, 592, 626, 669, 579, 561, 633, 587, 539, 614, 600, 575, 555, 553, 538, 700, 649, 558, 502, 576, 634, 537, 663, 652, 476, 573, 616, 672, 625, 679, 1244, 1336, 740, 728, 747, 1175, 1144, 889, 2401, 2494, 1191, 806, 1239, 2187, 1749, 1143, 3975, 4017, 1793, 749, 2230, 3800, 2677, 1330, 3839, 3810, 1709, 758, 2191, 3379, 2198, 2295, 953, 1059, 1247, 1077, 1010, 1806, 2723, 2879, 2820, 5314, 3732, 1346, 2232, 6121, 6838, 1562, 2957, 4531, 2848, 926, 2092, 4948, 5026, 629, 1227, 1569, 977, 563, 913, 1621, 1534, 626, 622, 664, 569, 524, 672, 733, 700, 575, 663, 644, 576, 582, 726, 816, 686, 548, 611, 569, 524, 562, 703, 779, 561, 573, 595, 517, 453, 540, 634, 576, 543, 598, 592, 522, 544, 551, 585, 593, 614, 615, 628, 659, 541, 503, 597, 671, 632, 645, 659, 685, 567, 564, 678, 702, 675, 594, 597, 544, 606, 573, 537, 581, 587, 570, 563, 589, 644, 608, 521, 567, 648, 545, 553, 588, 571, 571, 466, 550, 618, 709, 619, 547, 627, 582, 485, 479, 592, 632, 586, 563, 635, 591, 495, 535, 613, 613, 534, 635, 686, 644, 484, 569, 701, 653, 565, 559, 640, 652, 539, 574, 735, 630, 627, 602, 622, 655, 635, 593, 634, 618, 612, 513, 532, 605, 674, 590, 508, 598, 555, 539, 603, 580, 605, 602, 610, 626, 574, 613, 704, 547, 577, 670, 663, 581, 598, 590, 559, 565, 558, 650, 594, 563, 617, 585, 539, 591, 622, 583, 525, 599, 579, 586, 649, 665, 614, 632, 638, 553, 560, 514, 605, 621, 531, 580, 634, 560, 682, 663, 643, 633, 527, 626, 642, 611, 628, 592, 593, 566, 569, 670, 622, 515, 586, 598, 627, 632, 563, 550, 521, 576, 516, 543, 571, 623, 606, 494, 550, 613, 604, 493, 438, 571, 638, 620, 593, 600, 557, 506, 496, 569, 619, 520, 514, 691, 707, 629, 526, 606, 611, 630, 635, 511, 599, 588, 499, 613, 648, 561, 431, 491, 583, 570, 557, 573, 598, 627, 584, 616, 704, 541, 506, 670, 665, 721, 634, 646, 666, 487, 525, 687, 634, 589, 563, 530, 532, 563, 545, 548, 531, 518, 528, 535, 595, 675, 612, 604, 663, 591, 491, 493, 619, 697, 651, 599, 619, 544, 482, 567, 645, 701, 609, 582, 624, 576, 556, 579, 631, 612, 568, 551, 537, 536, 579, 510, 595, 612, 531, 548, 598, 584, 554, 551, 503, 534, 555, 649, 662, 534, 539, 559, 535, 553, 573, 575, 619, 555, 535, 622, 607, 577, 608, 499, 487, 590, 630, 502, 588, 641, 637, 524, 557, 670, 586, 604, 587, 591, 550, 521, 575, 578, 567, 626, 610, 563, 543, 498, 446, 612, 632, 541, 607, 593, 617, 663, 589, 614, 617, 468, 593, 626, 576, 612, 676, 548, 494, 560, 572, 514, 530, 568, 544, 519, 568, 626, 645, 610, 557, 575, 599, 634, 594, 642, 685, 636, 615, 568, 613, 627, 612, 705, 670, 550, 579, 534, 511, 514, 543, 663, 684, 589, 627, 591, 546, 541, 568, 602, 631, 607, 598, 563, 636, 684, 594, 540, 479, 582, 586, 520, 619, 693, 660, 500, 547, 627, 484, 533, 478, 503, 584, 481, 578, 549, 460, 521, 501, 501, 510, 540, 677, 554, 466, 540, 543, 562, 502, 523, 533, 493, 502, 550, 533, 542, 577, 536, 510, 487, 492, 552, 539, 496, 556, 388, 365, 417, 483, 475, 421, 428, 468, 413, 386, 350, 417, 432, 409, 424, 424, 474, 460, 437, 427, 468, 421, 380, 464, 466, 493, 487, 407, 420, 465, 448, 429, 375, 370, 389, 384, 383, 367, 332, 401, 393, 346, 422, 424, 359, 384, 405, 400, 422, 344, 399, 428, 393, 351, 399, 488, 403, 474, 432, 397, 423, 412, 431, 432]"
0.22008749842643738,-0.01876826584339142,-0.10908954590559006,0.007067076861858368,0.010269001126289368,-0.20504671335220337,0.07005699723958969,-0.21435129642486572,0.44460296630859375,19.75,-0.13939249515533447,0.6405830383300781,26.25,-0.08546221256256104,-0.06566047668457031,20.5,0.017534613609313965,-0.13375282287597656,23.0,0.10307919979095459,-0.1346111297607422,18.0,"[528, 584, 662, 596, 525, 599, 661, 584, 590, 522, 590, 629, 534, 523, 587, 630, 437, 510, 609, 498, 442, 567, 579, 497, 519, 568, 587, 503, 486, 487, 522, 527, 519, 494, 448, 427, 475, 486, 415, 509, 559, 533, 544, 531, 566, 582, 550, 582, 539, 570, 528, 562, 602, 567, 550, 550, 488, 463, 476, 492, 525, 520, 516, 509, 505, 467, 434, 460, 501, 489, 484, 473, 574, 508, 458, 528, 492, 532, 546, 549, 551, 428, 482, 593, 588, 520, 564, 615, 522, 572, 562, 574, 534, 564, 628, 593, 557, 487, 493, 518, 510, 562, 593, 606, 628, 569, 489, 515, 535, 585, 535, 555, 517, 524, 471, 469, 530, 559, 501, 477, 587, 585, 490, 520, 569, 605, 550, 536, 488, 518, 544, 510, 451, 510, 589, 482, 498, 541, 577, 565, 549, 555, 649, 576, 603, 587, 528, 570, 583, 558, 544, 543, 517, 553, 538, 620, 521, 504, 608, 572, 512, 511, 663, 676, 474, 542, 619, 547, 535, 581, 637, 604, 575, 614, 624, 512, 541, 548, 553, 569, 526, 598, 608, 510, 537, 619, 652, 604, 572, 640, 611, 524, 675, 636, 538, 629, 678, 655, 562, 531, 654, 689, 571, 546, 677, 598, 515, 578, 603, 611, 490, 585, 669, 626, 561, 563, 615, 598, 518, 545, 621, 634, 560, 477, 518, 612, 552, 539, 614, 538, 495, 503, 541, 522, 585, 557, 585, 570, 527, 558, 584, 564, 591, 581, 536, 539, 539, 573, 588, 552, 585, 549, 600, 547, 539, 627, 524, 535, 501, 486, 478, 502, 514, 531, 549, 461, 514, 551, 531, 487, 459, 552, 586, 625, 611, 634, 618, 582, 597, 543, 541, 655, 669, 598, 574, 532, 557, 492, 632, 624, 530, 558, 585, 562, 526, 504, 580, 549, 532, 584, 534, 510, 475, 504, 541, 617, 612, 563, 552, 552, 552, 541, 510, 626, 675, 514, 459, 620, 639, 532, 440, 513, 589, 542, 395, 482, 557, 494, 578, 537, 532, 503, 432, 468, 513, 547, 571, 457, 510, 558, 564, 535, 630, 633, 539, 545, 514, 520, 523, 558, 471, 463, 550, 548, 474, 462, 508, 523, 480, 446, 627, 628, 567, 559, 593, 599, 632, 574, 604, 720, 747, 657, 527, 605, 731, 652, 827, 1163, 965, 679, 721, 742, 828, 619, 864, 1347, 1105, 645, 755, 701, 789, 552, 657, 925, 869, 616, 601, 555, 652, 569, 664, 752, 673, 571, 620, 572, 506, 531, 717, 956, 750, 548, 645, 723, 789, 529, 768, 1543, 1459, 803, 627, 961, 1361, 878, 772, 1958, 2263, 1328, 579, 1187, 2037, 1672, 2954, 2470, 4408, 3301, 1328, 1963, 4606, 5419, 5150, 10146, 13513, 8343, 2187, 6121, 12886, 12631, 4571, 11082, 13541, 7955, 2167, 6245, 12074, 10940, 3845, 3916, 5327, 3801, 1750, 2452, 5457, 6114, 3094, 4507, 6824, 4413, 1673, 3107, 7973, 8295, 1845, 3936, 4588, 2660, 1163, 2158, 4883, 4530, 1334, 2172, 1899, 1090, 858, 925, 1712, 1378, 860, 940, 872, 778, 647, 601, 733, 761, 650, 511, 605, 567, 588, 592, 476, 593, 643, 632, 610, 630, 637, 643, 509, 503, 674, 696, 568, 590, 616, 678, 659, 586, 623, 667, 616, 583, 736, 771, 739, 602, 581, 547, 585, 626, 620, 666, 659, 526, 578, 590, 562, 508, 573, 591, 597, 573, 601, 540, 549, 558, 571, 506, 490, 636, 505, 441, 543, 572, 555, 557, 605, 648, 443, 494, 571, 565, 522, 546, 611, 566, 518, 523, 523, 554, 580, 596, 593, 590, 526, 462, 548, 580, 504, 492, 580, 586, 627, 553, 572, 632, 552, 457, 594, 658, 672, 577, 622, 650, 610, 567, 570, 613, 606, 526, 649, 665, 585, 629, 578, 541, 585, 557, 588, 643, 557, 472, 527, 556, 661, 570, 567, 686, 617, 463, 614, 678, 617, 634, 677, 678, 649, 595, 672, 690, 675, 644, 704, 693, 653, 652, 746, 727, 588, 607, 732, 659, 672, 668, 597, 611, 586, 663, 656, 596, 623, 575, 512, 584, 559, 639, 634, 474, 497, 548, 572, 545, 671, 641, 605, 589, 544, 625, 647, 689, 682, 628, 704, 675, 557, 608, 633, 710, 696, 607, 651, 642, 571, 638, 632, 719, 669, 673, 682, 641, 636, 650, 645, 690, 548, 543, 589, 589, 604, 598, 591, 615, 721, 632, 491, 550, 563, 553, 558, 665, 713, 605, 615, 644, 598, 585, 652, 726, 552, 588, 611, 606, 532, 558, 680, 608, 512, 517, 558, 441, 446, 544, 614, 601, 608, 586, 490, 437, 452, 454, 519, 618, 653, 595, 515, 558, 555, 545, 582, 631, 602, 617, 509, 502, 546, 476, 544, 601, 566, 652, 597, 580, 537, 562, 644, 594, 537, 621, 571, 519, 467, 538, 605, 520, 503, 553, 531, 558, 475, 544, 550, 450, 655, 582, 544, 564, 562, 555, 468, 525, 620, 644, 560, 580, 640, 571, 443, 540, 564, 625, 570, 554, 539, 525, 558, 517, 533, 589, 598, 705, 599, 622, 664, 542, 589, 596, 666, 713, 619, 668, 685, 571, 561, 592, 616, 536, 553, 584, 588, 569, 577, 592, 596, 545, 490, 512, 548, 553, 541, 545, 591, 613, 609, 585, 606, 584, 508, 498, 563, 549, 502, 451, 543, 549, 577, 667, 674, 591, 530, 596, 549, 525, 656, 667, 581, 580, 671, 666, 610, 618, 600, 571, 489, 551, 678, 645, 577, 530, 461, 482, 593, 533, 537, 571, 603, 579, 572, 493, 603, 648, 587, 562, 618, 669, 592, 604, 685, 658, 584, 620, 649, 602, 592, 552, 670, 636, 555, 600, 627, 656, 674, 733, 718, 622, 586, 622, 630, 635, 645, 642, 575, 597, 607, 588, 600, 605, 590, 539, 492, 546, 556, 501, 493, 547, 500, 479, 527, 481, 537, 529, 553, 560, 526, 443, 441, 502, 621, 580, 590, 621, 518, 475, 437, 501, 463, 516, 564, 516, 515, 451, 430, 468, 428, 411, 411, 456, 491, 418, 520, 476, 445, 475, 452, 498, 487, 379, 458, 457, 439, 426, 419, 538, 399, 426, 445, 413, 373, 412, 440, 412, 375, 454, 453, 405, 447, 400, 401, 412, 428, 520, 460, 394, 462, 401, 419, 388, 465, 433, 375, 388, 395, 324, 365, 442, 482, 420, 446, 423, 384, 392, 409, 462]"
0.23415493965148926,-0.051268622279167175,-0.043904781341552734,0.04494157433509827,-0.0022918544709682465,-0.07463246583938599,0.1087714210152626,-0.059666991233825684,0.4497528076171875,19.25,0.013432145118713379,0.2602100372314453,23.0,0.07766211032867432,0.0,24.75,0.114998459815979,0.2662181854248047,24.0,0.20068609714508057,0.2686500549316406,18.25,"[595, 745, 710, 606, 561, 606, 710, 741, 558, 649, 695, 702, 615, 618, 703, 635, 495, 575, 626, 587, 516, 545, 551, 500, 574, 575, 565, 520, 558, 596, 573, 574, 539, 530, 502, 452, 502, 466, 544, 595, 600, 542, 535, 542, 473, 476, 520, 584, 527, 541, 524, 532, 528, 564, 498, 471, 429, 440, 584, 557, 486, 523, 566, 547, 486, 446, 527, 536, 514, 530, 504, 547, 538, 487, 497, 525, 560, 530, 539, 512, 555, 592, 518, 473, 540, 597, 629, 566, 545, 590, 522, 525, 508, 527, 609, 610, 487, 486, 548, 554, 564, 551, 531, 564, 554, 559, 602, 594, 525, 481, 515, 549, 512, 478, 482, 509, 495, 500, 448, 473, 534, 497, 478, 572, 549, 469, 505, 557, 490, 511, 592, 613, 529, 434, 505, 551, 449, 512, 514, 557, 578, 516, 529, 508, 530, 593, 552, 522, 615, 597, 548, 524, 639, 612, 607, 616, 599, 639, 520, 575, 563, 606, 558, 463, 528, 624, 569, 558, 572, 565, 606, 584, 629, 649, 637, 609, 586, 597, 613, 579, 633, 667, 630, 580, 565, 495, 586, 640, 574, 502, 537, 547, 572, 470, 550, 584, 561, 513, 506, 557, 505, 510, 453, 513, 537, 552, 512, 451, 497, 581, 553, 584, 596, 589, 610, 493, 576, 656, 540, 506, 580, 601, 599, 529, 484, 472, 528, 567, 602, 601, 496, 508, 560, 531, 546, 524, 609, 616, 526, 539, 567, 588, 547, 524, 570, 485, 436, 561, 520, 524, 486, 538, 592, 509, 517, 533, 483, 573, 611, 590, 532, 651, 644, 510, 513, 509, 606, 631, 557, 593, 640, 626, 535, 466, 605, 616, 563, 561, 618, 625, 550, 627, 632, 565, 489, 498, 531, 531, 505, 613, 588, 560, 480, 492, 502, 481, 531, 604, 536, 568, 585, 590, 532, 463, 486, 469, 535, 619, 551, 522, 523, 545, 511, 468, 554, 583, 637, 647, 575, 609, 557, 522, 527, 516, 545, 587, 537, 490, 552, 566, 571, 614, 606, 604, 561, 494, 533, 552, 575, 612, 614, 602, 570, 512, 651, 648, 594, 582, 602, 647, 626, 599, 649, 602, 549, 581, 611, 569, 571, 630, 584, 628, 612, 615, 602, 574, 551, 548, 646, 739, 692, 602, 619, 608, 583, 562, 1202, 1602, 1190, 605, 860, 791, 770, 569, 1241, 1851, 1367, 606, 861, 828, 836, 559, 718, 1111, 920, 568, 598, 661, 728, 563, 697, 927, 851, 550, 582, 752, 723, 609, 592, 820, 899, 714, 567, 624, 771, 703, 531, 947, 1103, 790, 585, 730, 981, 867, 734, 1552, 1512, 844, 664, 1075, 1506, 1043, 1339, 3028, 3354, 2040, 1067, 1655, 2935, 2399, 3150, 5774, 6929, 4313, 1655, 3092, 6225, 5894, 4187, 7594, 9388, 5731, 1786, 4830, 9463, 8825, 3414, 6941, 8898, 5270, 1401, 5770, 10748, 9661, 2073, 6134, 7442, 4081, 1158, 5633, 9749, 8081, 909, 3172, 3407, 1799, 1028, 3412, 4885, 3466, 783, 1169, 1172, 713, 875, 1638, 1728, 1126, 681, 740, 726, 598, 704, 955, 951, 805, 559, 810, 865, 651, 540, 617, 741, 670, 565, 723, 843, 626, 438, 525, 641, 683, 610, 646, 679, 577, 450, 500, 636, 675, 561, 623, 638, 646, 661, 617, 532, 560, 618, 731, 609, 542, 685, 681, 621, 564, 613, 659, 612, 560, 582, 582, 556, 571, 613, 670, 698, 645, 634, 682, 629, 580, 695, 701, 669, 686, 587, 587, 673, 660, 643, 622, 561, 600, 559, 567, 587, 593, 538, 575, 582, 583, 525, 530, 609, 545, 558, 576, 542, 500, 521, 538, 592, 569, 640, 676, 565, 676, 707, 658, 710, 621, 748, 658, 551, 652, 662, 594, 636, 679, 838, 677, 566, 639, 791, 676, 483, 619, 712, 575, 665, 701, 663, 639, 561, 523, 840, 624, 594, 801, 731, 575, 541, 759, 809, 626, 633, 712, 653, 649, 659, 835, 806, 731, 616, 612, 682, 728, 692, 717, 658, 672, 672, 719, 631, 638, 731, 807, 511, 688, 746, 706, 639, 632, 796, 700, 537, 481, 616, 699, 675, 644, 691, 668, 563, 568, 624, 625, 650, 594, 537, 580, 556, 608, 616, 599, 544, 540, 483, 525, 671, 609, 644, 640, 582, 641, 560, 674, 597, 590, 611, 608, 583, 593, 636, 640, 612, 629, 673, 633, 597, 677, 752, 635, 531, 574, 606, 521, 467, 570, 600, 485, 587, 534, 554, 573, 490, 583, 614, 585, 530, 522, 544, 571, 578, 613, 585, 503, 655, 605, 563, 709, 743, 719, 684, 657, 732, 698, 632, 689, 675, 578, 662, 711, 783, 778, 682, 574, 598, 720, 694, 653, 676, 658, 533, 511, 637, 718, 620, 573, 561, 558, 518, 546, 641, 636, 532, 525, 537, 578, 677, 547, 583, 614, 600, 603, 588, 633, 722, 606, 572, 662, 637, 639, 511, 528, 635, 617, 545, 582, 557, 509, 532, 528, 577, 619, 572, 510, 570, 553, 636, 639, 576, 618, 656, 639, 573, 525, 579, 635, 628, 565, 599, 630, 580, 598, 533, 620, 587, 500, 582, 603, 514, 448, 534, 545, 553, 507, 497, 558, 467, 475, 569, 539, 566, 536, 467, 652, 635, 542, 549, 539, 603, 583, 580, 690, 676, 581, 511, 523, 632, 595, 546, 584, 679, 578, 631, 623, 603, 569, 582, 572, 637, 658, 557, 575, 596, 593, 569, 556, 547, 526, 560, 589, 566, 543, 512, 556, 600, 535, 621, 690, 566, 518, 578, 635, 643, 540, 698, 680, 585, 596, 587, 631, 531, 588, 496, 761, 965, 748, 546, 685, 951, 938, 562, 1056, 1168, 814, 636, 808, 1175, 1001, 535, 814, 852, 623, 550, 629, 681, 589, 483, 601, 652, 546, 504, 516, 533, 482, 539, 636, 553, 437, 498, 568, 532, 481, 540, 585, 518, 544, 510, 493, 549, 493, 508, 493, 540, 591, 467, 532, 571, 472, 462, 459, 481, 593, 574, 473, 488, 445, 516, 522, 474, 515, 483, 455, 443, 489, 542, 475, 491, 590, 485, 432, 453, 507, 438, 357, 380, 489, 485, 394, 394, 445, 474, 459, 394, 422, 400, 404, 404, 388, 419, 414, 404, 408, 396, 372, 417, 445, 512, 484, 449, 507, 485, 473, 477, 473, 409, 426, 467, 417, 368, 406, 450, 445, 444, 382, 376, 356, 336, 357, 387, 453]"
0.21665482223033905,-0.1365194022655487,-0.07318703830242157,-0.004513338208198547,-0.15940353274345398,-0.1779615879058838,0.028338082134723663,-0.05945897102355957,-0.7212638854980469,20.0,-0.031707048416137695,0.5207061767578125,20.0,0.005915403366088867,-0.5857944488525391,19.0,0.04067683219909668,0.3275871276855469,20.25,0.09632372856140137,0.06608963012695312,15.25,"[566, 629, 596, 620, 691, 618, 597, 627, 603, 505, 667, 664, 623, 642, 731, 794, 470, 506, 522, 542, 557, 601, 609, 543, 535, 589, 488, 467, 507, 516, 531, 467, 604, 562, 463, 461, 534, 573, 479, 433, 486, 481, 477, 451, 505, 523, 462, 442, 480, 444, 503, 474, 479, 481, 515, 480, 507, 538, 591, 525, 440, 496, 522, 566, 483, 492, 551, 469, 478, 564, 536, 513, 485, 487, 498, 481, 530, 642, 614, 546, 494, 651, 538, 519, 609, 583, 507, 498, 461, 596, 548, 435, 517, 562, 538, 460, 463, 547, 549, 494, 517, 558, 549, 446, 485, 568, 588, 530, 454, 488, 517, 469, 508, 631, 575, 440, 487, 555, 587, 517, 456, 583, 594, 549, 541, 586, 573, 523, 500, 564, 530, 415, 424, 504, 559, 511, 636, 625, 516, 538, 555, 593, 612, 621, 680, 567, 573, 643, 563, 554, 557, 660, 619, 551, 573, 625, 634, 568, 520, 547, 554, 603, 630, 569, 606, 612, 576, 558, 618, 626, 609, 532, 550, 644, 553, 543, 599, 593, 627, 559, 572, 560, 504, 520, 551, 519, 664, 603, 513, 569, 544, 564, 588, 552, 565, 535, 543, 575, 562, 543, 688, 581, 519, 486, 509, 581, 592, 632, 634, 555, 492, 547, 535, 478, 479, 575, 578, 489, 453, 455, 538, 471, 415, 514, 541, 460, 432, 478, 499, 468, 459, 557, 555, 468, 482, 569, 606, 538, 596, 605, 640, 578, 549, 546, 634, 531, 560, 649, 624, 628, 615, 525, 528, 603, 609, 525, 611, 553, 509, 540, 530, 511, 522, 519, 605, 552, 522, 546, 579, 603, 482, 511, 576, 575, 552, 546, 526, 587, 569, 551, 496, 526, 530, 515, 500, 527, 536, 482, 458, 478, 469, 487, 526, 504, 545, 499, 525, 485, 530, 529, 544, 565, 665, 661, 538, 575, 567, 510, 525, 589, 550, 467, 490, 657, 624, 473, 494, 560, 584, 404, 503, 651, 672, 579, 507, 575, 628, 543, 567, 626, 621, 620, 584, 597, 744, 618, 604, 690, 702, 673, 608, 590, 652, 614, 639, 653, 679, 707, 582, 578, 629, 666, 582, 575, 544, 566, 590, 597, 615, 600, 707, 731, 619, 500, 613, 674, 635, 596, 703, 879, 811, 567, 584, 627, 747, 739, 874, 1300, 1163, 717, 696, 628, 831, 713, 747, 1093, 979, 682, 693, 743, 820, 633, 728, 754, 653, 604, 605, 632, 633, 618, 647, 630, 667, 555, 577, 586, 515, 599, 549, 637, 574, 518, 624, 599, 575, 562, 674, 922, 881, 576, 585, 752, 832, 703, 731, 1067, 1067, 679, 581, 852, 848, 789, 846, 1017, 1280, 955, 656, 761, 1145, 1303, 1038, 2104, 3092, 1981, 748, 1561, 3278, 3225, 1064, 4297, 5510, 3048, 770, 3012, 6103, 5459, 1053, 4853, 5871, 3094, 834, 3049, 6220, 5429, 986, 3106, 3388, 1681, 801, 1561, 3386, 2843, 898, 1303, 1172, 885, 811, 681, 1095, 945, 659, 592, 663, 689, 622, 560, 651, 744, 612, 729, 782, 620, 559, 675, 719, 627, 627, 670, 603, 553, 552, 616, 722, 641, 534, 613, 528, 489, 576, 650, 598, 527, 604, 586, 478, 488, 572, 569, 521, 588, 699, 544, 648, 757, 643, 601, 619, 735, 630, 589, 728, 659, 579, 548, 633, 698, 596, 500, 619, 570, 562, 576, 524, 637, 533, 478, 560, 554, 524, 570, 554, 572, 529, 513, 583, 520, 516, 618, 618, 571, 602, 550, 612, 667, 632, 600, 622, 648, 614, 585, 570, 622, 614, 642, 656, 657, 651, 588, 571, 709, 678, 548, 628, 645, 647, 620, 650, 782, 633, 514, 696, 709, 714, 672, 620, 658, 701, 674, 662, 737, 641, 663, 605, 615, 782, 698, 668, 756, 566, 545, 624, 575, 659, 698, 708, 673, 546, 603, 604, 533, 577, 670, 572, 568, 642, 699, 659, 649, 645, 649, 704, 583, 570, 556, 636, 691, 654, 580, 605, 558, 534, 451, 553, 646, 595, 519, 521, 592, 593, 582, 647, 660, 662, 587, 526, 547, 574, 578, 602, 632, 618, 628, 589, 593, 650, 565, 719, 771, 623, 638, 693, 699, 590, 532, 641, 621, 537, 551, 608, 658, 633, 632, 637, 591, 608, 605, 611, 667, 653, 592, 646, 592, 554, 589, 629, 727, 651, 611, 620, 591, 524, 530, 629, 700, 566, 542, 543, 546, 607, 470, 517, 567, 694, 699, 588, 541, 588, 519, 412, 536, 573, 576, 684, 578, 549, 615, 564, 563, 487, 653, 663, 544, 549, 649, 622, 474, 458, 518, 544, 535, 547, 675, 658, 484, 644, 617, 605, 529, 557, 645, 620, 609, 811, 729, 596, 604, 672, 697, 597, 676, 728, 762, 621, 549, 688, 749, 643, 575, 570, 585, 505, 532, 601, 564, 563, 510, 589, 571, 578, 614, 604, 644, 643, 564, 525, 573, 540, 499, 563, 584, 583, 535, 587, 609, 529, 511, 542, 565, 611, 571, 536, 452, 608, 613, 529, 550, 611, 614, 579, 611, 677, 638, 531, 543, 524, 584, 612, 553, 637, 665, 631, 610, 496, 543, 540, 548, 560, 536, 539, 576, 527, 530, 536, 624, 628, 510, 595, 602, 590, 619, 566, 606, 599, 582, 641, 608, 629, 599, 610, 600, 574, 628, 631, 554, 512, 546, 561, 542, 546, 651, 669, 601, 576, 581, 531, 522, 655, 680, 671, 610, 653, 637, 585, 619, 691, 689, 621, 706, 751, 714, 476, 669, 685, 656, 673, 751, 729, 573, 520, 584, 597, 601, 619, 644, 596, 556, 525, 615, 583, 540, 566, 613, 518, 512, 555, 708, 772, 586, 557, 651, 733, 700, 501, 604, 782, 603, 496, 539, 727, 739, 547, 512, 689, 621, 468, 518, 587, 684, 485, 480, 574, 575, 481, 500, 550, 546, 558, 461, 533, 572, 563, 502, 560, 639, 541, 519, 517, 514, 466, 464, 477, 512, 418, 436, 450, 468, 528, 505, 478, 459, 374, 447, 486, 434, 417, 404, 447, 429, 452, 467, 494, 480, 470, 475, 476, 475, 427, 506, 509, 431, 445, 473, 473, 415, 388, 414, 427, 427, 398, 382, 357, 299, 340, 383, 435, 381, 364, 421, 385, 345, 438, 427, 349, 346, 410, 423, 376, 354, 451, 475, 373, 436, 387, 407, 427, 354, 397, 373, 394, 469, 427, 397, 426, 432]"
0.16103413701057434,0.17364178597927094,0.02847442403435707,-0.10971204936504364,0.36585041880607605,0.17014449834823608,-0.06479419022798538,-0.14688396453857422,-0.2556324005126953,15.75,-0.13415241241455078,0.0,16.75,-0.02371692657470703,0.5321502685546875,23.0,0.0034627914428710938,0.06623268127441406,23.0,0.12391185760498047,0.13403892517089844,15.5,"[460, 487, 552, 515, 500, 517, 552, 488, 493, 567, 662, 620, 613, 586, 597, 580, 426, 485, 547, 524, 499, 552, 540, 497, 464, 495, 521, 505, 519, 550, 501, 505, 487, 571, 567, 492, 489, 598, 568, 484, 491, 519, 542, 488, 432, 503, 476, 461, 528, 464, 522, 531, 469, 531, 510, 534, 421, 475, 541, 484, 462, 508, 509, 464, 407, 464, 483, 458, 470, 544, 521, 385, 521, 620, 549, 484, 484, 621, 641, 469, 542, 558, 558, 533, 481, 628, 679, 557, 547, 601, 569, 560, 580, 555, 515, 444, 626, 572, 456, 585, 581, 524, 503, 505, 537, 526, 497, 509, 516, 463, 529, 553, 535, 549, 514, 514, 583, 530, 487, 551, 575, 496, 515, 584, 594, 546, 507, 524, 535, 511, 509, 573, 540, 516, 535, 521, 519, 539, 586, 672, 487, 511, 720, 629, 566, 528, 713, 730, 574, 551, 721, 670, 573, 501, 545, 609, 524, 582, 581, 542, 573, 551, 546, 622, 589, 470, 489, 569, 549, 580, 609, 605, 620, 554, 598, 600, 546, 560, 521, 631, 690, 605, 557, 546, 590, 571, 478, 562, 539, 482, 513, 540, 544, 576, 558, 515, 441, 440, 522, 520, 584, 574, 535, 536, 505, 553, 563, 510, 628, 611, 625, 569, 491, 482, 580, 627, 538, 558, 601, 528, 496, 497, 486, 547, 500, 537, 561, 513, 502, 583, 590, 523, 493, 588, 574, 548, 631, 579, 516, 481, 628, 600, 587, 627, 618, 548, 482, 549, 585, 610, 590, 608, 529, 519, 543, 480, 581, 509, 499, 593, 496, 563, 555, 531, 578, 474, 516, 605, 650, 611, 529, 599, 491, 570, 593, 469, 519, 617, 555, 459, 512, 647, 649, 485, 475, 603, 591, 538, 451, 590, 619, 468, 460, 545, 572, 485, 533, 615, 575, 484, 539, 616, 596, 477, 505, 519, 506, 573, 556, 597, 575, 515, 518, 520, 545, 533, 520, 603, 633, 555, 478, 455, 516, 482, 512, 489, 545, 585, 526, 553, 575, 622, 664, 587, 639, 676, 547, 542, 565, 547, 565, 531, 591, 651, 607, 629, 576, 620, 584, 512, 615, 583, 667, 726, 615, 630, 638, 596, 619, 586, 654, 694, 640, 650, 662, 612, 587, 579, 585, 675, 618, 596, 650, 633, 640, 633, 729, 893, 788, 657, 715, 796, 825, 676, 774, 1090, 991, 624, 712, 828, 781, 654, 775, 969, 917, 634, 728, 776, 663, 699, 736, 765, 817, 656, 666, 690, 650, 732, 689, 572, 623, 737, 635, 591, 634, 773, 679, 628, 631, 653, 638, 664, 599, 636, 1037, 1100, 909, 774, 808, 881, 949, 1011, 1612, 1294, 1923, 1712, 1063, 999, 1881, 2314, 1974, 2069, 3631, 2866, 1440, 1453, 3542, 3990, 2310, 1549, 3190, 2708, 1429, 1335, 3574, 4276, 2830, 4469, 6955, 4425, 1415, 3650, 8351, 8445, 1969, 4912, 6970, 4250, 1272, 3978, 8366, 7859, 798, 2431, 2914, 1742, 895, 1885, 3416, 2927, 751, 1221, 1071, 648, 739, 817, 1022, 802, 651, 939, 955, 744, 766, 685, 816, 752, 587, 776, 707, 597, 544, 669, 780, 690, 604, 584, 503, 608, 599, 614, 544, 458, 576, 583, 495, 508, 529, 514, 527, 582, 617, 537, 471, 578, 629, 579, 581, 608, 532, 505, 588, 595, 542, 491, 572, 622, 580, 669, 749, 619, 537, 598, 691, 697, 561, 634, 615, 583, 541, 549, 620, 589, 598, 584, 486, 518, 548, 545, 584, 583, 554, 560, 524, 546, 487, 543, 563, 542, 622, 543, 542, 575, 547, 540, 493, 548, 593, 567, 462, 499, 563, 567, 539, 477, 603, 532, 484, 547, 611, 688, 604, 578, 683, 630, 701, 730, 684, 696, 767, 716, 761, 728, 714, 825, 741, 695, 639, 693, 749, 747, 666, 628, 625, 623, 637, 647, 688, 670, 637, 661, 579, 527, 639, 681, 499, 499, 535, 561, 533, 475, 521, 543, 522, 510, 654, 608, 472, 475, 554, 599, 513, 560, 576, 594, 546, 620, 623, 493, 638, 618, 550, 550, 597, 656, 631, 570, 671, 597, 555, 632, 632, 593, 573, 660, 678, 712, 658, 748, 688, 681, 595, 595, 679, 639, 632, 711, 665, 549, 549, 610, 573, 612, 621, 655, 628, 558, 575, 570, 689, 741, 640, 540, 578, 666, 642, 582, 660, 649, 658, 663, 561, 575, 649, 612, 592, 578, 616, 691, 626, 494, 651, 629, 588, 657, 634, 706, 709, 585, 620, 643, 620, 653, 659, 731, 630, 619, 708, 672, 681, 602, 554, 595, 531, 506, 682, 711, 544, 582, 567, 566, 479, 580, 680, 610, 462, 523, 622, 593, 520, 527, 670, 678, 491, 502, 527, 558, 569, 520, 494, 555, 531, 640, 580, 514, 576, 630, 570, 503, 527, 515, 587, 552, 505, 527, 543, 500, 477, 603, 605, 552, 527, 528, 540, 447, 491, 559, 595, 609, 610, 529, 473, 544, 460, 491, 623, 648, 558, 510, 585, 608, 514, 461, 588, 616, 566, 529, 520, 534, 562, 584, 680, 604, 502, 555, 579, 571, 573, 541, 645, 634, 545, 564, 553, 548, 583, 610, 658, 628, 621, 541, 486, 529, 558, 586, 543, 596, 705, 585, 530, 575, 495, 568, 650, 626, 589, 559, 584, 578, 543, 607, 647, 639, 566, 578, 609, 547, 605, 609, 596, 629, 640, 680, 668, 597, 594, 546, 490, 566, 594, 540, 535, 589, 677, 544, 598, 620, 588, 557, 599, 701, 559, 496, 580, 579, 541, 476, 622, 728, 554, 484, 547, 573, 471, 472, 598, 629, 598, 694, 682, 501, 553, 682, 629, 583, 682, 945, 980, 689, 606, 769, 876, 804, 635, 811, 877, 687, 632, 695, 790, 754, 624, 585, 568, 494, 570, 622, 491, 571, 579, 519, 517, 484, 531, 579, 462, 493, 491, 573, 525, 566, 586, 546, 551, 521, 448, 542, 499, 512, 564, 364, 522, 543, 436, 480, 526, 472, 430, 459, 578, 516, 448, 495, 513, 469, 475, 521, 509, 473, 435, 414, 465, 421, 434, 474, 429, 408, 465, 431, 428, 421, 409, 405, 442, 500, 459, 448, 404, 410, 422, 473, 420, 417, 398, 430, 366, 353, 362, 371, 382, 349, 384, 446, 368, 383, 453, 394, 382, 346, 436, 396, 407, 448, 405, 363, 479, 506, 425, 357, 431, 536, 433, 382, 467, 436]"
0.17199204862117767,0.23171481490135193,-0.04956153780221939,-0.06456822156906128,0.353889137506485,0.01609790325164795,-0.01056637242436409,-0.1946425437927246,0.3818035125732422,18.5,-0.12655019760131836,0.38352012634277344,25.5,-0.016973018646240234,0.3224372863769531,24.5,-0.014827251434326172,0.537872314453125,17.75,0.03867387771606445,0.3281593322753906,22.0,"[653, 642, 571, 639, 705, 636, 571, 639, 694, 664, 602, 563, 654, 653, 518, 584, 584, 568, 541, 492, 566, 564, 515, 501, 623, 619, 507, 497, 501, 527, 515, 514, 474, 544, 499, 447, 492, 484, 499, 451, 475, 542, 549, 432, 479, 551, 496, 443, 504, 566, 558, 474, 521, 540, 453, 469, 555, 532, 579, 562, 503, 499, 487, 567, 528, 554, 581, 473, 482, 562, 510, 484, 534, 563, 609, 532, 540, 540, 522, 524, 557, 610, 586, 554, 582, 628, 581, 549, 581, 557, 483, 551, 688, 688, 560, 558, 504, 512, 570, 575, 640, 575, 468, 543, 643, 606, 632, 575, 567, 625, 570, 575, 550, 514, 592, 581, 536, 580, 478, 526, 479, 472, 556, 572, 618, 648, 522, 460, 484, 519, 561, 578, 516, 585, 572, 395, 532, 557, 509, 620, 531, 498, 575, 445, 525, 599, 555, 601, 600, 549, 491, 509, 557, 520, 510, 512, 540, 542, 481, 494, 521, 484, 534, 561, 517, 462, 440, 482, 636, 653, 607, 619, 619, 534, 502, 548, 517, 524, 524, 499, 529, 546, 492, 539, 492, 530, 519, 439, 535, 527, 474, 483, 546, 554, 513, 501, 590, 581, 436, 509, 592, 489, 614, 605, 582, 573, 511, 691, 458, 504, 587, 533, 476, 514, 584, 598, 526, 524, 568, 529, 467, 528, 572, 583, 623, 601, 533, 587, 561, 481, 518, 574, 574, 566, 508, 581, 506, 486, 530, 533, 511, 529, 512, 509, 513, 476, 539, 548, 568, 519, 502, 514, 601, 544, 514, 563, 440, 423, 499, 597, 557, 488, 509, 528, 483, 502, 660, 756, 659, 556, 607, 580, 515, 576, 578, 603, 630, 564, 568, 587, 515, 565, 527, 497, 491, 464, 566, 565, 543, 549, 542, 471, 494, 458, 456, 539, 518, 659, 635, 521, 569, 575, 484, 499, 598, 636, 572, 559, 582, 543, 510, 540, 639, 602, 633, 618, 661, 599, 581, 658, 562, 549, 552, 531, 553, 548, 564, 591, 589, 574, 597, 558, 495, 515, 560, 578, 555, 521, 542, 591, 565, 505, 524, 644, 740, 670, 529, 551, 613, 629, 536, 656, 549, 544, 551, 584, 573, 631, 617, 584, 627, 606, 597, 625, 589, 612, 692, 652, 616, 626, 540, 566, 650, 678, 606, 606, 796, 1007, 823, 673, 667, 629, 619, 573, 932, 1262, 944, 584, 586, 656, 781, 565, 803, 861, 693, 579, 571, 627, 644, 580, 748, 762, 661, 621, 676, 674, 594, 642, 743, 846, 688, 509, 658, 659, 687, 694, 660, 918, 927, 646, 597, 715, 851, 830, 915, 1380, 1205, 780, 600, 827, 1000, 734, 3328, 3860, 5066, 3657, 1501, 2121, 4462, 5101, 5697, 7458, 10719, 7234, 2374, 4468, 10488, 11415, 3608, 7520, 9996, 5886, 1463, 4791, 10350, 10095, 1675, 4906, 6559, 3627, 904, 3589, 7470, 6983, 2608, 3877, 6361, 4222, 1398, 3268, 7420, 7603, 1375, 2384, 3619, 2344, 828, 1968, 4169, 4120, 678, 988, 1213, 872, 517, 812, 1410, 1332, 618, 801, 889, 693, 594, 562, 833, 798, 608, 746, 806, 757, 661, 561, 755, 747, 541, 614, 586, 564, 623, 594, 615, 541, 492, 527, 640, 631, 632, 507, 511, 569, 525, 580, 655, 579, 569, 552, 564, 588, 518, 623, 604, 522, 576, 505, 556, 575, 471, 548, 588, 532, 505, 474, 565, 556, 510, 627, 563, 520, 550, 498, 525, 499, 616, 678, 533, 517, 634, 616, 604, 585, 632, 659, 585, 567, 617, 584, 496, 557, 551, 573, 572, 587, 664, 565, 484, 462, 585, 666, 614, 570, 607, 705, 614, 519, 527, 540, 494, 502, 487, 545, 522, 520, 516, 551, 585, 528, 479, 496, 525, 538, 487, 575, 709, 662, 518, 519, 651, 632, 602, 559, 638, 698, 646, 517, 615, 677, 610, 684, 676, 669, 629, 579, 694, 712, 539, 483, 642, 689, 534, 495, 645, 630, 585, 590, 665, 663, 572, 538, 628, 613, 657, 632, 576, 543, 635, 680, 673, 625, 616, 648, 707, 647, 664, 715, 690, 693, 522, 565, 677, 646, 622, 571, 564, 615, 511, 536, 591, 557, 588, 618, 621, 579, 559, 586, 505, 521, 592, 625, 541, 546, 578, 585, 510, 570, 629, 538, 570, 612, 549, 597, 557, 593, 577, 563, 694, 671, 628, 659, 585, 574, 647, 731, 641, 614, 626, 643, 597, 531, 682, 679, 560, 543, 639, 669, 612, 612, 700, 713, 640, 595, 648, 666, 538, 538, 575, 640, 661, 594, 734, 656, 585, 647, 646, 700, 671, 599, 599, 556, 592, 683, 582, 559, 653, 642, 647, 607, 539, 676, 709, 556, 596, 593, 523, 581, 565, 570, 578, 638, 601, 528, 518, 512, 497, 578, 578, 542, 536, 538, 520, 477, 492, 591, 581, 511, 506, 508, 631, 615, 534, 627, 647, 531, 496, 528, 593, 526, 469, 507, 567, 592, 544, 497, 570, 568, 504, 486, 541, 666, 710, 581, 562, 556, 488, 538, 529, 543, 560, 552, 527, 531, 547, 493, 479, 509, 457, 488, 579, 578, 547, 528, 495, 468, 509, 528, 573, 528, 585, 662, 624, 521, 600, 582, 489, 571, 619, 651, 535, 518, 542, 523, 612, 602, 589, 649, 610, 577, 533, 547, 657, 722, 607, 708, 741, 587, 633, 672, 563, 624, 558, 641, 631, 492, 655, 599, 628, 631, 637, 604, 626, 644, 579, 580, 581, 565, 582, 595, 616, 652, 646, 643, 613, 562, 658, 584, 608, 753, 731, 661, 627, 662, 661, 607, 640, 697, 658, 648, 581, 907, 1005, 787, 684, 748, 1032, 942, 703, 1165, 1401, 973, 621, 873, 1468, 1375, 738, 953, 1114, 753, 600, 730, 1171, 1175, 625, 722, 812, 707, 606, 628, 903, 878, 480, 543, 561, 544, 499, 542, 632, 547, 494, 502, 489, 503, 438, 504, 570, 515, 543, 545, 489, 515, 529, 546, 593, 556, 624, 597, 575, 576, 564, 609, 625, 629, 456, 452, 443, 443, 481, 522, 491, 422, 459, 427, 376, 393, 499, 531, 474, 437, 444, 461, 451, 433, 414, 452, 562, 507, 410, 454, 499, 445, 427, 407, 509, 497, 365, 424, 413, 393, 393, 323, 425, 436, 349, 409, 391, 411, 424, 398, 448, 430, 358, 356, 371, 382, 400, 394, 394, 401, 368, 377, 458, 435, 380, 396, 396, 405]"
0.2699137032032013,0.23972545564174652,-0.003011755645275116,0.19252479076385498,0.24382950365543365,0.09319483488798141,0.2713071405887604,0.031285881996154785,0.5188465118408203,23.25,0.04072725772857666,0.5855083465576172,21.0,0.05202829837799072,0.4516124725341797,18.0,0.06576120853424072,-0.3865242004394531,18.75,0.10338366031646729,0.06508827209472656,21.5,"[643, 621, 537, 611, 732, 613, 539, 616, 648, 595, 567, 585, 775, 705, 554, 644, 506, 499, 513, 539, 591, 578, 498, 504, 550, 533, 548, 513, 493, 515, 468, 530, 526, 510, 481, 500, 502, 511, 546, 554, 503, 487, 563, 509, 478, 483, 514, 554, 474, 502, 510, 466, 491, 509, 487, 471, 509, 489, 473, 575, 583, 556, 531, 454, 463, 452, 485, 569, 521, 518, 536, 495, 458, 485, 471, 538, 505, 477, 487, 439, 484, 554, 574, 544, 538, 548, 479, 437, 552, 483, 516, 586, 595, 561, 447, 512, 446, 486, 565, 530, 479, 545, 469, 469, 558, 544, 534, 500, 527, 587, 491, 510, 492, 569, 524, 435, 519, 637, 551, 457, 600, 603, 501, 482, 569, 557, 549, 540, 562, 527, 491, 563, 557, 499, 512, 484, 464, 560, 523, 464, 516, 525, 597, 494, 509, 577, 553, 521, 564, 598, 560, 510, 535, 506, 591, 624, 521, 448, 525, 549, 516, 468, 603, 627, 566, 493, 573, 623, 552, 620, 587, 598, 648, 669, 657, 555, 498, 566, 572, 538, 613, 630, 508, 457, 603, 565, 539, 575, 629, 619, 492, 542, 492, 496, 524, 553, 569, 561, 561, 517, 522, 535, 506, 585, 573, 537, 602, 525, 543, 646, 628, 549, 524, 632, 683, 555, 610, 672, 656, 574, 614, 636, 615, 634, 603, 608, 647, 626, 587, 573, 566, 589, 549, 562, 550, 536, 557, 570, 526, 515, 501, 550, 557, 605, 556, 563, 571, 446, 501, 561, 535, 496, 482, 544, 535, 465, 515, 451, 502, 511, 469, 487, 547, 593, 562, 503, 506, 564, 586, 635, 595, 577, 500, 568, 536, 558, 522, 541, 590, 552, 644, 633, 511, 546, 608, 580, 610, 644, 540, 578, 541, 531, 537, 485, 550, 580, 503, 557, 545, 569, 540, 466, 623, 596, 581, 500, 470, 504, 439, 493, 547, 565, 519, 564, 533, 557, 536, 512, 549, 517, 509, 579, 523, 567, 596, 529, 508, 484, 601, 552, 539, 527, 504, 568, 488, 484, 578, 565, 584, 690, 603, 591, 513, 539, 608, 546, 609, 700, 622, 542, 549, 566, 611, 673, 591, 523, 593, 612, 620, 563, 655, 703, 622, 563, 561, 599, 690, 636, 571, 644, 501, 486, 574, 604, 612, 523, 947, 1244, 825, 544, 706, 733, 731, 566, 1237, 1647, 1138, 544, 797, 791, 858, 516, 825, 1151, 892, 539, 700, 727, 724, 541, 584, 586, 562, 530, 547, 494, 545, 639, 686, 678, 544, 571, 617, 713, 705, 653, 692, 741, 662, 607, 640, 715, 677, 709, 934, 1089, 1010, 756, 710, 837, 889, 893, 932, 1865, 1995, 1112, 656, 1205, 1473, 1026, 1401, 4852, 5800, 3301, 978, 2909, 5226, 4347, 2194, 7850, 9422, 5225, 1142, 4897, 9153, 7739, 1561, 6263, 7179, 3752, 905, 3888, 6806, 5425, 996, 2229, 2157, 982, 964, 1904, 2027, 1096, 1045, 1047, 737, 649, 751, 1088, 981, 742, 1065, 1179, 734, 712, 708, 668, 842, 708, 956, 1070, 787, 682, 693, 611, 682, 653, 708, 798, 758, 652, 564, 552, 597, 558, 645, 850, 746, 607, 555, 587, 716, 596, 555, 731, 621, 603, 652, 609, 615, 584, 599, 675, 623, 590, 622, 702, 602, 544, 591, 585, 506, 587, 591, 650, 613, 578, 587, 586, 589, 629, 668, 615, 665, 680, 584, 646, 559, 557, 629, 602, 584, 588, 608, 605, 488, 588, 600, 566, 528, 467, 637, 505, 488, 700, 682, 516, 615, 682, 669, 555, 457, 589, 615, 563, 596, 695, 664, 626, 513, 547, 625, 569, 556, 632, 600, 755, 636, 495, 551, 617, 645, 515, 646, 668, 606, 601, 655, 664, 590, 560, 659, 573, 594, 695, 676, 586, 461, 667, 638, 681, 615, 575, 625, 641, 534, 548, 603, 673, 669, 581, 653, 727, 637, 591, 611, 701, 730, 616, 722, 735, 634, 602, 581, 600, 664, 517, 623, 701, 608, 615, 695, 631, 545, 602, 715, 689, 530, 656, 645, 593, 587, 621, 697, 638, 572, 710, 598, 548, 611, 637, 623, 564, 563, 634, 503, 540, 567, 504, 483, 500, 539, 529, 542, 486, 603, 563, 557, 480, 487, 595, 591, 544, 516, 588, 554, 576, 525, 510, 531, 564, 511, 477, 560, 711, 619, 546, 642, 532, 545, 572, 629, 607, 539, 615, 566, 534, 488, 542, 577, 546, 552, 574, 587, 547, 482, 499, 604, 522, 473, 560, 604, 583, 541, 533, 644, 583, 417, 577, 557, 484, 550, 520, 594, 590, 455, 520, 462, 461, 585, 617, 591, 540, 545, 483, 545, 471, 597, 576, 582, 655, 569, 534, 557, 567, 574, 511, 497, 676, 643, 555, 584, 636, 592, 529, 493, 616, 572, 531, 563, 652, 715, 611, 549, 629, 592, 507, 624, 658, 709, 627, 661, 746, 640, 580, 583, 585, 558, 594, 656, 646, 627, 621, 665, 682, 536, 533, 685, 627, 630, 653, 612, 555, 444, 654, 693, 481, 504, 599, 647, 615, 512, 617, 651, 480, 424, 569, 584, 523, 568, 513, 516, 535, 551, 576, 589, 594, 600, 528, 564, 667, 583, 533, 622, 579, 502, 494, 556, 578, 519, 508, 614, 578, 546, 517, 572, 537, 515, 571, 564, 547, 570, 540, 534, 574, 579, 585, 514, 480, 552, 518, 487, 580, 593, 543, 579, 561, 526, 487, 505, 595, 602, 513, 617, 730, 619, 599, 705, 687, 585, 516, 646, 656, 607, 539, 577, 574, 590, 640, 543, 690, 593, 499, 494, 599, 621, 515, 539, 669, 623, 544, 484, 604, 785, 669, 584, 756, 851, 713, 586, 746, 1075, 981, 580, 801, 1001, 769, 577, 762, 1177, 1131, 577, 603, 632, 539, 500, 678, 830, 760, 547, 448, 461, 478, 496, 486, 561, 602, 559, 547, 519, 542, 480, 520, 635, 587, 499, 492, 470, 491, 462, 505, 536, 472, 420, 491, 471, 429, 485, 575, 604, 557, 497, 474, 502, 507, 497, 530, 573, 556, 454, 524, 557, 482, 502, 540, 477, 459, 494, 484, 557, 473, 430, 412, 436, 446, 455, 549, 497, 414, 409, 461, 509, 470, 407, 456, 417, 429, 456, 478, 475, 478, 454, 399, 408, 449, 440, 466, 511, 511, 465, 445, 409, 405, 429, 455, 409, 382, 338, 440, 470, 371, 326, 457, 449, 369]"
0.23685023188591003,0.16273954510688782,0.204949289560318,0.07576070725917816,0.13689479231834412,0.32349544763565063,0.08025605976581573,-0.14036285877227783,-0.13060569763183594,16.75,-0.07255661487579346,-0.8474349975585938,15.5,-0.07098305225372314,-0.1323223114013672,22.0,0.013846278190612793,0.19998550415039062,22.0,0.10897529125213623,0.13418197631835938,15.75,"[544, 582, 611, 605, 670, 604, 608, 582, 508, 671, 666, 672, 752, 774, 748, 558, 580, 594, 567, 540, 580, 620, 558, 523, 524, 463, 445, 517, 488, 472, 458, 471, 489, 426, 442, 531, 512, 441, 485, 555, 464, 539, 553, 475, 470, 561, 629, 516, 457, 488, 468, 424, 444, 592, 607, 517, 459, 543, 561, 488, 512, 644, 619, 526, 467, 524, 566, 486, 493, 561, 612, 555, 552, 607, 545, 497, 523, 550, 647, 581, 561, 617, 538, 443, 534, 616, 516, 496, 590, 588, 609, 610, 495, 553, 596, 581, 498, 435, 580, 605, 515, 471, 616, 634, 584, 566, 680, 657, 611, 567, 588, 634, 560, 527, 535, 534, 632, 598, 515, 569, 563, 578, 579, 527, 604, 575, 559, 614, 553, 551, 563, 534, 575, 556, 498, 506, 550, 580, 529, 507, 500, 459, 494, 493, 479, 530, 515, 471, 493, 506, 499, 473, 540, 586, 547, 515, 620, 601, 481, 494, 522, 561, 620, 526, 542, 607, 553, 520, 498, 523, 644, 611, 544, 570, 567, 553, 491, 454, 479, 481, 505, 512, 552, 536, 497, 452, 499, 434, 538, 588, 493, 522, 462, 509, 508, 552, 660, 687, 576, 483, 522, 603, 542, 630, 708, 710, 618, 508, 603, 559, 520, 644, 752, 658, 607, 618, 485, 503, 590, 550, 493, 567, 632, 582, 432, 474, 502, 563, 517, 495, 531, 519, 628, 570, 550, 616, 629, 569, 561, 605, 516, 479, 569, 623, 581, 569, 569, 551, 494, 535, 569, 518, 505, 515, 574, 530, 516, 535, 491, 439, 443, 566, 481, 448, 532, 463, 467, 533, 537, 483, 547, 539, 582, 571, 554, 487, 514, 591, 540, 522, 484, 469, 489, 450, 494, 526, 505, 480, 451, 517, 485, 430, 472, 473, 557, 555, 537, 585, 499, 557, 548, 528, 612, 566, 584, 563, 579, 636, 569, 608, 649, 620, 632, 667, 597, 573, 573, 677, 703, 625, 580, 551, 543, 562, 562, 562, 606, 613, 511, 573, 661, 612, 563, 609, 577, 517, 575, 461, 583, 592, 513, 579, 475, 502, 565, 578, 649, 615, 579, 635, 603, 582, 528, 549, 649, 651, 655, 637, 570, 552, 512, 595, 623, 590, 647, 684, 697, 629, 631, 751, 722, 614, 589, 694, 596, 603, 875, 1248, 1046, 598, 628, 811, 811, 570, 819, 1134, 936, 561, 547, 714, 778, 555, 659, 748, 656, 567, 596, 654, 662, 656, 589, 549, 575, 586, 532, 637, 626, 526, 545, 655, 665, 603, 628, 640, 611, 544, 732, 1446, 1411, 809, 725, 833, 1050, 817, 1033, 2129, 2010, 899, 792, 1074, 1493, 1118, 1105, 1025, 936, 800, 772, 745, 854, 1064, 1205, 1995, 2975, 2087, 788, 1315, 2760, 2875, 1945, 2322, 3625, 2478, 995, 1402, 3469, 3950, 2675, 3718, 6014, 3949, 1274, 2549, 6663, 7099, 1621, 4809, 6517, 3766, 958, 3286, 7176, 6766, 917, 3215, 3514, 1651, 763, 1911, 3492, 2829, 914, 1358, 1186, 614, 627, 807, 992, 831, 591, 675, 710, 554, 583, 763, 800, 699, 534, 609, 639, 475, 567, 724, 672, 597, 588, 625, 531, 491, 547, 628, 608, 590, 574, 616, 594, 547, 560, 503, 517, 494, 552, 641, 586, 606, 610, 525, 553, 511, 555, 768, 707, 640, 663, 649, 689, 628, 531, 654, 597, 594, 543, 516, 569, 543, 583, 530, 494, 528, 497, 470, 553, 584, 592, 569, 539, 490, 543, 552, 553, 556, 699, 661, 557, 534, 631, 595, 540, 608, 668, 586, 595, 633, 613, 621, 593, 678, 607, 613, 640, 627, 672, 601, 574, 633, 575, 701, 623, 586, 580, 552, 641, 562, 610, 714, 585, 625, 601, 621, 642, 557, 569, 678, 706, 737, 609, 627, 611, 608, 605, 581, 591, 632, 626, 589, 536, 586, 581, 459, 468, 519, 516, 511, 534, 553, 607, 558, 501, 597, 577, 593, 589, 577, 556, 557, 581, 662, 591, 565, 569, 564, 618, 674, 573, 611, 609, 593, 621, 585, 562, 610, 561, 543, 561, 635, 676, 602, 638, 595, 583, 585, 615, 631, 621, 678, 654, 641, 634, 646, 584, 593, 597, 626, 534, 615, 597, 536, 518, 527, 565, 535, 601, 599, 619, 687, 615, 619, 625, 568, 663, 661, 663, 697, 608, 565, 632, 625, 585, 581, 555, 613, 575, 551, 563, 598, 617, 531, 555, 681, 602, 601, 535, 557, 588, 503, 548, 692, 637, 609, 563, 616, 566, 510, 490, 544, 640, 628, 550, 531, 631, 619, 537, 495, 587, 634, 548, 588, 499, 547, 565, 509, 469, 525, 494, 488, 599, 580, 546, 509, 562, 548, 450, 469, 646, 642, 560, 632, 710, 629, 563, 609, 648, 610, 554, 586, 636, 589, 576, 666, 585, 494, 589, 633, 520, 594, 640, 644, 643, 531, 579, 679, 614, 605, 568, 595, 622, 601, 548, 618, 697, 701, 594, 598, 585, 538, 498, 655, 662, 563, 476, 533, 581, 590, 535, 638, 642, 540, 515, 538, 534, 544, 564, 543, 553, 546, 528, 511, 539, 548, 503, 504, 542, 575, 515, 542, 638, 605, 587, 581, 647, 689, 590, 596, 579, 508, 545, 582, 705, 683, 615, 624, 530, 464, 508, 625, 728, 619, 568, 599, 520, 482, 518, 514, 569, 630, 537, 475, 538, 574, 501, 518, 603, 612, 468, 479, 490, 591, 543, 523, 588, 618, 632, 581, 496, 576, 664, 645, 573, 687, 754, 626, 500, 594, 691, 626, 549, 652, 736, 584, 600, 617, 571, 654, 639, 630, 698, 648, 607, 612, 602, 691, 647, 549, 620, 654, 688, 532, 612, 692, 618, 518, 508, 698, 600, 484, 626, 718, 636, 516, 608, 684, 485, 606, 624, 560, 565, 516, 595, 571, 421, 590, 616, 458, 398, 556, 558, 453, 435, 452, 599, 546, 420, 536, 541, 515, 461, 433, 455, 474, 436, 470, 487, 456, 480, 512, 466, 403, 466, 496, 500, 455, 453, 494, 469, 438, 505, 516, 502, 456, 405, 459, 488, 538, 517, 410, 456, 499, 432, 408, 418, 550, 561, 436, 444, 498, 472, 447, 420, 417, 460, 467, 419, 416, 411, 385, 353, 386, 432, 384, 333, 353, 361, 394, 459, 449, 418, 423, 396, 358, 331, 358, 428, 442, 395, 461, 419, 348, 416, 431, 401, 396, 436, 419, 378, 413]"
