posz,velx,vely,velz,accx,accy,accz,p1x,p1y,p1z,p2x,p2y,p2z,p3x,p3y,p3z,p4x,p4y,p4z,p5x,p5y,p5z,heatmap
0.17078450322151184,0.6733216047286987,0.018837008625268936,-0.9466882348060608,0.3469353914260864,-0.5179372429847717,-1.4523804187774658,-0.7806046605110168,2.355623245239258,16.5,-0.7806046605110168,2.4547576904296875,16.0,-0.15947657823562622,0.43544769287109375,16.75,-0.1494629979133606,0.4433155059814453,22.75,-0.011132538318634033,0.201416015625,22.5,"[519, 557, 562, 578, 506, 579, 564, 553, 603, 662, 594, 618, 568, 693, 704, 487, 610, 669, 540, 512, 569, 593, 538, 468, 598, 558, 481, 527, 626, 598, 517, 509, 488, 495, 565, 611, 561, 548, 600, 555, 426, 528, 570, 580, 503, 463, 589, 511, 484, 575, 527, 529, 549, 487, 470, 502, 508, 620, 585, 474, 555, 501, 450, 483, 425, 532, 555, 448, 443, 509, 507, 498, 500, 555, 628, 621, 552, 571, 549, 536, 556, 551, 591, 609, 559, 575, 627, 599, 576, 575, 527, 511, 544, 493, 552, 569, 524, 533, 471, 461, 541, 516, 509, 561, 609, 665, 593, 560, 552, 588, 661, 548, 643, 664, 619, 550, 522, 558, 538, 562, 610, 640, 607, 529, 516, 589, 628, 594, 516, 538, 596, 598, 577, 618, 612, 551, 482, 514, 611, 660, 521, 516, 577, 537, 483, 639, 722, 580, 522, 569, 556, 468, 869, 654, 802, 999, 958, 800, 974, 1065, 2362, 1005, 1956, 3663, 3516, 1599, 2529, 3393, 3866, 1167, 3690, 7538, 7053, 2125, 4182, 6028, 3279, 3893, 5297, 6933, 7259, 5764, 4969, 4926, 2500, 6362, 7894, 3996, 4786, 9506, 8289, 3285, 1888, 4936, 5939, 2589, 4172, 7778, 6521, 2475, 972, 2443, 3210, 1578, 2599, 5118, 4869, 2436, 2572, 3497, 3090, 3797, 2256, 4113, 6093, 4445, 3652, 5372, 3889, 4295, 4691, 2830, 5692, 5359, 4074, 7877, 6395, 4546, 6894, 5706, 7642, 6909, 5707, 12130, 9437, 3378, 6415, 5943, 10205, 7677, 6919, 14396, 11682, 3005, 4578, 5337, 9742, 6011, 4007, 9770, 9124, 3111, 2880, 4191, 6795, 4460, 1471, 2934, 3553, 1789, 1865, 2284, 2441, 2343, 2406, 2427, 2622, 1994, 3254, 3376, 3010, 3244, 3926, 1819, 3715, 3637, 3313, 2863, 3446, 5116, 4264, 1328, 2953, 3126, 2691, 2611, 1624, 4304, 3552, 2699, 1339, 1240, 2844, 3578, 1741, 2014, 2473, 2951, 1948, 1827, 2245, 2357, 2110, 1198, 2588, 2734, 2579, 2798, 3105, 2601, 1521, 1943, 3359, 3426, 1543, 2442, 3851, 3175, 1437, 1645, 3426, 4590, 2937, 1440, 3446, 3379, 1850, 1093, 2189, 3811, 3304, 1083, 2397, 3351, 2402, 746, 1275, 1631, 1680, 1293, 1435, 2432, 2348, 1273, 2562, 2976, 2343, 1351, 1201, 1827, 2461, 1706, 2806, 3842, 3223, 1446, 1377, 1156, 2350, 1639, 1967, 2878, 2119, 1691, 1720, 934, 1425, 1034, 1454, 1911, 1114, 1617, 2186, 1871, 1373, 787, 1943, 2610, 1672, 1066, 1949, 2054, 1616, 838, 1627, 2042, 1247, 845, 1305, 1213, 1070, 794, 1292, 1351, 1347, 1208, 1315, 1695, 961, 888, 1575, 1295, 1222, 1235, 1262, 1809, 1086, 888, 1048, 868, 689, 766, 867, 983, 847, 895, 557, 991, 1007, 765, 496, 884, 1130, 781, 950, 1476, 1461, 963, 752, 1139, 1270, 849, 799, 1489, 1670, 1162, 871, 999, 1162, 854, 675, 970, 985, 744, 820, 1005, 1058, 702, 718, 1509, 1357, 968, 772, 1072, 1539, 1051, 718, 1391, 1749, 1772, 986, 1063, 2152, 1700, 861, 1248, 1902, 1872, 1047, 1006, 1706, 1494, 743, 1803, 2178, 1459, 695, 1494, 2032, 1544, 852, 1986, 2497, 1613, 794, 2060, 3312, 2715, 1255, 1419, 2045, 1555, 896, 1599, 2920, 2732, 1157, 828, 966, 807, 728, 841, 1523, 1721, 1085, 1376, 1488, 1171, 851, 726, 978, 1157, 1175, 2558, 2583, 1291, 581, 1079, 1660, 1226, 812, 1906, 2100, 1244, 754, 809, 1644, 1468, 976, 1512, 1753, 1398, 892, 1290, 1919, 1596, 951, 1672, 1939, 1395, 1044, 1448, 1664, 1182, 1270, 1376, 1661, 2033, 2068, 1280, 1717, 1416, 1914, 1155, 1760, 3313, 2893, 1293, 3401, 3657, 1946, 1246, 1967, 2887, 2465, 1147, 3701, 4062, 1568, 970, 992, 1060, 1609, 1432, 1587, 2112, 2821, 1211, 1430, 3144, 3829, 2244, 1179, 3104, 3973, 1454, 1762, 4317, 5092, 2482, 2263, 4787, 3901, 1566, 1620, 3871, 4562, 2118, 2828, 5004, 2610, 1448, 1846, 2993, 3024, 1835, 2723, 3464, 1735, 1466, 1721, 2830, 2269, 2337, 3624, 3088, 1419, 2186, 1471, 2289, 1736, 2801, 4044, 2760, 1452, 2328, 1337, 1587, 1219, 2143, 3128, 1855, 1183, 2145, 1708, 1456, 1271, 1418, 2676, 2056, 2270, 2074, 2191, 2336, 2262, 1924, 1593, 1649, 7244, 2455, 3161, 7316, 8132, 3383, 4585, 8874, 7877, 2006, 2761, 7527, 8555, 3121, 5577, 10179, 3021, 1321, 1269, 2789, 3414, 2012, 1383, 3240, 1325, 966, 896, 1349, 1287, 1029, 1725, 1859, 1752, 1222, 1867, 2091, 1682, 1067, 1697, 2140, 1477, 1983, 1971, 1314, 1014, 1655, 2666, 2204, 1346, 1980, 1360, 880, 912, 1677, 2596, 2136, 1262, 1287, 761, 921, 1033, 1084, 1414, 1404, 950, 855, 733, 841, 965, 916, 980, 1036, 873, 827, 1170, 1059, 891, 865, 1432, 1464, 779, 1089, 1361, 1081, 733, 994, 1240, 1093, 910, 886, 1206, 1082, 860, 859, 919, 1055, 743, 750, 929, 699, 777, 782, 922, 982, 2173, 527, 1832, 1594, 1385, 790, 1711, 2998, 3065, 1113, 3473, 3144, 1992, 1002, 3209, 4800, 1974, 1141, 2709, 2456, 1402, 963, 2312, 3225, 880, 762, 1187, 1072, 619, 770, 946, 1074, 1020, 720, 1152, 1185, 772, 663, 1122, 1397, 2055, 1060, 2066, 1833, 1275, 1279, 2417, 3089, 2567, 1597, 2662, 2153, 1280, 1776, 3332, 3978, 2046, 1436, 2187, 1785, 1158, 1609, 2586, 3051, 1571, 1173, 1757, 1460, 1086, 1112, 1703, 2244, 1241, 1053, 1433, 1193, 796, 784, 1362, 1711, 855, 850, 870, 712, 659, 815, 812, 881, 709, 783, 677, 522, 648, 897, 757, 519, 759, 776, 667, 678, 799, 786, 606, 615, 675, 596, 703, 749, 767, 658, 677, 741, 922, 701, 1039, 1002, 888, 711, 1168, 1391, 1475, 862, 1509, 1952, 1318, 1207, 2710, 2826, 1528, 1564, 2153, 2771, 1687, 2154, 4524, 4148, 1150, 1835, 2094, 1905, 1240, 1858, 3655, 3222, 910, 1411, 1339, 809, 710, 1061, 1612, 1399, 1147, 983, 1928, 2019, 1220, 924, 1442, 1622, 2500, 1450, 4466, 4964, 2405, 1723, 3589, 3874, 1817, 2004, 4886, 4810, 1689, 2235, 3509, 3193, 1038, 1382, 2681, 2462, 1083, 1800, 1920, 1015, 1105, 558, 1207, 1501, 878, 1179, 1199, 1067, 1156, 935, 1010, 958, 890, 1277, 1357, 1245, 839, 982, 942, 691, 806, 1004, 950, 796, 605, 1104, 1708, 1492, 761, 936, 1216, 945, 530, 1148, 1870, 1714, 978, 1149, 1501, 1156, 588, 1070, 1194, 902, 915, 821, 1029, 959, 459, 893, 1176, 770, 645, 646, 678, 786, 538, 494, 774, 674, 487, 603, 478, 531, 728, 502, 671, 808, 724, 666, 936, 1026, 861, 616, 1113, 1568, 1150, 1040, 1972, 1826, 801, 756, 966, 1241, 883, 947, 1765, 1593]"
0.13239708542823792,0.3170018792152405,0.00011408701539039612,-0.8801389336585999,-0.2320566177368164,-0.5542828440666199,-1.1301231384277344,-0.1941048502922058,0.46520233154296875,27.0,-0.18237465620040894,0.4466056823730469,-28.25,-0.12243622541427612,0.3955364227294922,16.5,-0.04404419660568237,0.16350746154785156,27.5,0.6285822987556458,0.8999347686767578,17.25,"[419, 562, 583, 576, 569, 576, 585, 557, 464, 622, 613, 627, 630, 502, 630, 627, 549, 626, 579, 549, 675, 719, 612, 567, 607, 612, 584, 608, 694, 625, 548, 610, 610, 568, 457, 548, 522, 477, 444, 485, 576, 605, 582, 609, 575, 492, 529, 587, 528, 481, 456, 542, 582, 430, 495, 595, 493, 506, 469, 477, 492, 603, 572, 535, 488, 493, 602, 569, 469, 548, 604, 581, 476, 404, 475, 525, 460, 486, 544, 529, 461, 428, 428, 459, 492, 528, 489, 481, 599, 567, 445, 448, 576, 623, 500, 488, 484, 584, 491, 503, 585, 570, 454, 412, 497, 616, 580, 483, 543, 581, 531, 436, 491, 593, 549, 491, 569, 601, 518, 438, 611, 567, 543, 537, 590, 602, 599, 620, 695, 651, 526, 537, 626, 667, 547, 587, 624, 694, 584, 603, 635, 714, 757, 633, 700, 782, 524, 646, 673, 720, 807, 694, 1927, 968, 965, 1281, 1593, 1126, 1712, 2444, 6787, 1733, 5782, 11074, 9699, 1247, 8734, 11370, 11248, 3956, 19871, 30627, 20761, 5533, 23967, 24068, 6634, 8016, 24472, 30564, 15567, 12321, 23114, 16747, 2173, 9328, 18148, 15120, 1525, 13255, 15326, 8409, 3710, 7855, 14150, 11869, 4396, 10758, 14938, 10676, 3131, 5145, 8475, 6149, 2555, 7056, 8293, 6720, 3454, 5028, 5351, 2274, 4599, 3378, 6233, 6349, 4538, 7095, 7172, 4645, 7879, 2634, 6686, 9938, 5850, 9459, 10204, 5374, 7802, 3620, 7412, 9505, 4999, 8581, 10682, 6857, 3924, 3671, 7454, 7769, 5414, 4687, 5316, 7381, 6652, 4565, 8378, 8697, 6721, 11343, 7620, 4170, 8033, 4318, 8121, 8645, 5522, 11477, 9021, 4286, 5500, 2581, 6616, 6720, 4238, 11881, 12721, 7064, 5755, 3138, 9691, 9070, 3443, 15704, 17911, 10181, 6494, 7734, 16315, 14471, 3414, 13800, 15006, 8854, 7004, 10707, 15048, 11094, 3870, 10053, 10127, 4643, 5058, 7813, 8170, 4318, 2680, 8463, 7970, 2325, 4682, 5098, 5554, 4162, 2401, 4317, 4169, 2317, 3130, 4042, 4102, 2904, 3298, 6408, 5574, 2043, 2132, 2926, 3736, 2064, 2972, 4984, 3870, 828, 2350, 2664, 2153, 699, 4003, 5809, 4417, 1545, 3003, 3185, 2195, 1594, 4961, 7506, 5938, 2130, 3738, 4098, 2858, 2082, 6200, 10068, 8303, 3279, 4656, 5920, 4420, 3068, 6898, 11108, 8761, 3766, 4905, 6172, 5316, 3114, 3829, 5981, 4345, 2320, 2336, 3119, 3604, 2023, 2457, 4205, 3415, 1572, 2351, 2844, 2340, 1662, 3993, 5936, 3949, 1273, 2276, 2343, 2973, 1116, 3879, 4280, 1815, 1404, 1734, 2189, 2279, 1235, 3684, 4849, 3038, 1766, 2293, 1956, 2572, 1916, 2644, 3617, 1994, 1098, 1812, 1768, 2170, 1073, 1637, 2834, 2489, 1038, 1227, 2207, 2148, 786, 1700, 3111, 2762, 1301, 922, 1948, 2303, 1167, 1462, 1664, 1136, 985, 1558, 1987, 1586, 852, 1348, 2427, 2294, 1233, 1740, 2102, 1730, 820, 1878, 2967, 2459, 1019, 1704, 2262, 2068, 933, 2413, 3667, 3230, 1477, 1301, 1991, 1990, 1596, 2682, 4116, 4492, 2871, 918, 2508, 3285, 3100, 2414, 3497, 4668, 3820, 1297, 2829, 4610, 4188, 3199, 2940, 5028, 5492, 2607, 2993, 6725, 6526, 3717, 1414, 3962, 5917, 3607, 2738, 7967, 8106, 2412, 945, 2409, 3765, 2361, 1925, 5523, 5528, 946, 1992, 2057, 1183, 743, 1425, 2384, 1837, 2091, 3825, 3252, 1714, 1651, 1937, 3125, 2426, 2252, 3740, 4091, 3346, 1930, 2063, 3542, 3426, 2264, 971, 2444, 3664, 2486, 1384, 4023, 4200, 2795, 2333, 2161, 4159, 3197, 3179, 5448, 5501, 3576, 1871, 2278, 4666, 3754, 3077, 5059, 5754, 3762, 1933, 2211, 5050, 4704, 3064, 4609, 5579, 3108, 2012, 2842, 4121, 3445, 2025, 3638, 4255, 2255, 2101, 2435, 2423, 1795, 1329, 1996, 2621, 4044, 1852, 2306, 3889, 4098, 1964, 3305, 5243, 3944, 1287, 2461, 4868, 4558, 1950, 4858, 6187, 3045, 1082, 1948, 4171, 5609, 4292, 2602, 3803, 5544, 1240, 3450, 7248, 8221, 4093, 3094, 7043, 4074, 1962, 4534, 6654, 5749, 2558, 3373, 5504, 4530, 3713, 5668, 7344, 5895, 3194, 4005, 5644, 5178, 3970, 6951, 8840, 6649, 2965, 5518, 7222, 4224, 3715, 6945, 8084, 5592, 3086, 5517, 6264, 2425, 3176, 4868, 5076, 3375, 3248, 4813, 4071, 4614, 2690, 3274, 2947, 3890, 3480, 4267, 5401, 11295, 3833, 4117, 8437, 10403, 5358, 8255, 14132, 9995, 2129, 4306, 7970, 8882, 2783, 8380, 13665, 3858, 916, 2703, 3260, 2635, 975, 3932, 5615, 1575, 1241, 1608, 1837, 1654, 1291, 1383, 1795, 2775, 1378, 2725, 2933, 2116, 1078, 2747, 3773, 3580, 2200, 4121, 3703, 2565, 2063, 5173, 6029, 2949, 2225, 3255, 2494, 1802, 2460, 5295, 5494, 2146, 1302, 1540, 1489, 1370, 1726, 3074, 3205, 2336, 1104, 1232, 1560, 1833, 1430, 1956, 2819, 2180, 1017, 1106, 1604, 1712, 1340, 2632, 3256, 1810, 1089, 1031, 1581, 1608, 1879, 3078, 3149, 1719, 963, 1175, 1742, 1847, 1975, 2835, 2915, 986, 925, 865, 1212, 1248, 1673, 1983, 1616, 2573, 1223, 2236, 2468, 1664, 1147, 1698, 2994, 3740, 1745, 4262, 4248, 2217, 1056, 3727, 5428, 2530, 1684, 3584, 3476, 1756, 1165, 3100, 3962, 1334, 1292, 2234, 2136, 1227, 1240, 1775, 1968, 1015, 1263, 2073, 1729, 897, 1100, 1805, 1887, 2141, 1339, 3060, 2564, 1228, 730, 2629, 3698, 2633, 1603, 3850, 3202, 1641, 663, 3482, 4790, 1961, 1633, 3507, 2856, 1705, 860, 2740, 3785, 1487, 1361, 2576, 2212, 1441, 666, 2408, 3031, 980, 936, 1391, 1372, 982, 874, 1912, 1970, 744, 986, 1185, 1135, 772, 1123, 1523, 1163, 1216, 1091, 1377, 1241, 895, 1053, 1351, 1444, 1463, 866, 1122, 1036, 1087, 794, 1271, 1869, 1461, 691, 1197, 1261, 1222, 1117, 2032, 2344, 1870, 952, 1892, 1592, 1075, 1342, 3495, 3811, 3093, 1331, 2376, 3588, 3010, 1550, 6026, 6725, 3520, 1481, 2483, 4281, 3672, 1523, 6723, 7570, 1996, 1418, 2023, 2435, 2171, 1255, 4138, 4517, 1220, 1544, 2461, 1749, 1140, 1231, 2616, 2837, 1129, 1327, 2851, 2349, 857, 1561, 1924, 2107, 1498, 1289, 2662, 2278, 1055, 1298, 1528, 2182, 1408, 1340, 1629, 1255, 1298, 1144, 1113, 1685, 1010, 1018, 1381, 1737, 1557, 867, 1222, 1420, 961, 829, 1501, 2024, 1356, 1022, 2004, 1821, 842, 926, 1386, 1761, 1097, 1420, 2188, 1751, 667, 1239, 2116, 2453, 1501, 1014, 1537, 888, 1022, 1637, 4671, 5980, 3538, 1418, 3396, 2546, 1449, 1426, 4687, 6227, 3850, 1564, 3763, 3211, 1055, 863, 2348, 3114, 2075, 648, 1706, 1755, 588, 680, 1368, 1589, 982, 718, 1032, 828, 766, 735, 1185, 1594, 1189, 839, 1031, 852, 840, 586, 2108, 3376, 2494, 773, 1970, 1651, 1268, 822, 2436, 4802, 3805, 594, 2869, 2604, 1132, 1268, 1254, 3099, 2981, 858, 1884, 2005]"
0.14608775079250336,0.19858205318450928,-0.0839720070362091,-0.6529256105422974,-0.3938918709754944,-0.6654301881790161,-0.635578989982605,-0.4901582598686218,0.7108211517333984,17.5,-0.421064555644989,0.7823467254638672,17.75,-0.3877336382865906,0.6411552429199219,26.0,-0.25140589475631714,0.5365848541259766,18.0,0.19534283876419067,0.27680397033691406,16.0,"[490, 576, 623, 616, 622, 618, 623, 579, 564, 617, 598, 557, 618, 734, 661, 501, 554, 636, 545, 548, 619, 647, 541, 378, 586, 669, 563, 479, 631, 702, 552, 468, 563, 540, 460, 532, 633, 620, 463, 466, 522, 489, 608, 623, 586, 564, 464, 467, 540, 525, 597, 551, 497, 533, 493, 501, 599, 467, 496, 548, 551, 538, 428, 597, 515, 452, 548, 557, 472, 513, 504, 515, 542, 530, 528, 533, 546, 567, 509, 542, 468, 520, 485, 453, 539, 529, 490, 533, 558, 537, 617, 605, 529, 531, 538, 593, 498, 456, 552, 529, 512, 548, 546, 550, 510, 556, 552, 516, 545, 591, 631, 543, 582, 664, 646, 508, 506, 654, 711, 616, 550, 518, 625, 660, 589, 547, 597, 666, 533, 514, 601, 572, 556, 482, 476, 614, 705, 639, 592, 541, 579, 590, 528, 640, 682, 702, 588, 532, 589, 604, 613, 606, 986, 867, 694, 797, 1022, 873, 826, 1039, 2781, 1192, 2083, 4270, 4081, 1136, 2628, 3965, 4441, 2209, 7043, 11025, 8141, 1688, 7058, 7819, 3340, 4098, 7984, 9095, 5639, 3990, 6069, 5262, 1754, 4413, 4398, 2126, 3328, 5087, 4696, 2805, 2836, 3228, 3714, 4484, 4166, 4148, 4628, 3405, 2363, 1964, 2285, 3148, 1931, 2359, 2422, 2316, 2018, 1942, 2007, 2989, 3212, 2662, 1770, 1493, 3217, 3459, 2531, 2498, 3107, 3439, 3181, 3137, 3373, 4161, 2901, 1878, 2899, 3212, 2943, 3171, 1528, 3380, 3768, 1932, 1524, 3015, 5167, 4520, 4089, 5436, 5194, 3143, 2667, 6386, 8313, 6496, 5621, 6540, 4364, 2972, 3595, 5170, 5497, 4920, 3945, 5205, 3889, 2660, 2595, 2061, 1758, 2463, 4054, 5751, 5676, 3865, 3472, 4157, 5925, 5339, 4368, 5751, 8099, 6015, 4132, 7163, 10641, 9540, 3637, 6670, 8558, 5631, 4800, 6792, 9326, 8500, 2220, 7047, 7830, 3502, 3747, 3893, 5066, 5197, 1241, 5458, 6090, 2387, 2219, 2592, 3147, 3400, 1756, 4764, 4945, 2188, 1359, 2254, 2974, 2239, 2432, 4517, 3905, 1609, 1100, 2259, 2919, 1332, 2094, 3060, 2451, 1146, 772, 945, 1329, 989, 1641, 2155, 1944, 1081, 940, 1238, 766, 871, 2327, 2948, 2230, 1226, 1285, 1445, 1096, 1009, 3773, 5313, 3562, 1713, 2633, 2219, 1999, 1351, 3870, 5929, 4361, 1744, 2907, 2720, 2615, 1390, 1783, 2696, 2233, 1327, 1364, 1604, 1731, 1048, 1205, 2010, 1548, 815, 1147, 825, 1215, 920, 1813, 2916, 2167, 733, 1396, 986, 1262, 885, 1889, 2867, 2054, 751, 1353, 1484, 1491, 696, 1609, 2711, 2250, 776, 1537, 2079, 1633, 799, 1346, 2315, 2042, 752, 1542, 1857, 1310, 992, 1390, 2579, 2534, 1072, 1118, 1401, 1406, 1196, 1067, 1606, 1896, 1219, 921, 1004, 1157, 1295, 1107, 948, 773, 1052, 946, 825, 963, 1019, 1273, 1623, 1005, 793, 990, 644, 1063, 867, 1522, 2206, 1581, 785, 955, 898, 1087, 744, 1293, 2103, 1892, 1344, 1326, 1109, 1635, 1421, 1003, 1569, 1710, 2203, 1745, 1167, 2461, 2234, 1268, 1068, 1728, 2436, 1680, 1293, 3011, 2967, 1883, 1353, 2514, 3198, 2030, 1763, 4523, 4473, 2363, 1522, 2953, 3957, 2636, 1537, 4905, 5117, 1770, 1293, 2023, 2594, 1879, 1168, 3073, 3303, 621, 922, 919, 932, 947, 893, 1265, 1100, 928, 1586, 1594, 1062, 673, 1402, 2033, 1573, 887, 1396, 1493, 1535, 1048, 1177, 2433, 2133, 1151, 875, 1613, 2016, 1592, 836, 1803, 2101, 1424, 1360, 2075, 2414, 1927, 1940, 1901, 2204, 1625, 1373, 2125, 2506, 2125, 1925, 1692, 2396, 1695, 1332, 1583, 1993, 2186, 2227, 1931, 1678, 1392, 1134, 905, 1246, 1543, 2189, 2053, 1312, 1290, 1039, 1375, 1427, 1193, 2039, 1892, 1298, 2188, 1399, 1478, 1699, 2498, 2350, 1003, 2013, 2205, 1014, 1604, 1869, 2116, 1497, 1103, 2451, 937, 970, 1517, 1988, 1656, 1019, 1411, 1356, 2265, 1139, 1878, 3047, 2752, 1243, 2101, 2960, 1180, 1722, 1474, 2223, 1223, 1778, 3038, 2039, 1093, 2644, 2078, 2786, 1935, 2739, 4620, 3198, 1193, 2543, 2268, 2126, 1977, 2297, 4291, 3492, 1317, 1907, 1800, 1618, 1713, 1455, 3656, 3733, 1024, 1583, 1656, 1286, 1169, 1561, 3050, 2707, 1897, 1507, 1099, 1483, 2032, 1851, 2316, 2699, 6062, 1932, 1966, 4441, 5602, 2732, 4046, 7416, 5903, 1983, 2091, 3613, 4826, 2236, 4017, 7273, 2562, 1271, 1316, 1151, 1431, 1318, 2345, 3279, 1122, 586, 1097, 1234, 1011, 1090, 1089, 1216, 2053, 911, 1833, 1575, 1762, 977, 1664, 2907, 2376, 1375, 2383, 2188, 1963, 1170, 2565, 3565, 1593, 1624, 1668, 1590, 1366, 1231, 1904, 1972, 845, 1022, 894, 877, 957, 859, 1271, 1125, 904, 597, 696, 774, 909, 685, 1314, 1472, 898, 657, 1063, 916, 767, 780, 1517, 1627, 976, 789, 1298, 1098, 843, 698, 1129, 1476, 1030, 719, 1117, 1092, 909, 653, 1130, 1520, 558, 647, 782, 770, 605, 691, 1105, 1009, 1667, 838, 1811, 1802, 1101, 894, 2046, 2554, 2604, 1457, 3226, 3047, 1664, 1140, 3288, 4179, 2341, 1205, 2654, 2626, 1477, 1006, 2893, 3655, 1753, 600, 1675, 1849, 1157, 655, 1862, 2525, 1458, 613, 1263, 1541, 1045, 506, 1180, 1777, 1686, 691, 1576, 1746, 1087, 698, 1554, 2242, 2129, 911, 1573, 1576, 1015, 946, 2076, 2866, 2072, 837, 1267, 1351, 1148, 1035, 2036, 2753, 1593, 765, 1220, 1326, 1052, 873, 1586, 2131, 1032, 559, 902, 977, 784, 620, 1104, 1380, 876, 598, 787, 898, 726, 730, 1085, 1166, 950, 720, 726, 835, 725, 808, 1054, 1122, 819, 759, 680, 656, 698, 705, 778, 839, 729, 588, 580, 707, 681, 565, 633, 759, 981, 522, 987, 1265, 1044, 477, 1117, 1448, 1569, 917, 1640, 2458, 2103, 760, 2792, 3220, 1457, 1087, 1693, 2900, 2251, 1106, 3415, 3550, 894, 1263, 1240, 1365, 1239, 1028, 2043, 2007, 982, 1326, 992, 613, 1035, 934, 1219, 1138, 1248, 1130, 1145, 1511, 1355, 921, 921, 1151, 1274, 896, 1865, 2184, 1552, 912, 1075, 1511, 922, 971, 1412, 1450, 1220, 1099, 712, 877, 866, 822, 1323, 1515, 1088, 1062, 1366, 1249, 798, 927, 1686, 1828, 947, 1182, 2057, 1669, 765, 989, 1568, 1577, 855, 966, 1873, 1661, 566, 890, 1473, 1508, 803, 945, 1507, 1183, 702, 789, 1822, 2136, 1077, 1102, 1767, 1194, 772, 929, 1843, 1928, 1055, 983, 1333, 1007, 471, 838, 1173, 957, 576, 547, 638, 720, 441, 680, 815, 638, 425, 625, 778, 640, 497, 510, 549, 536, 602, 667, 707, 640, 678, 689, 595, 1112, 1204, 674, 647, 741, 634, 458, 742, 1336, 1266, 636, 662, 875, 491, 428, 612, 893, 820, 408, 608, 728]"
0.1148446798324585,-0.05891948193311691,0.2058146595954895,-0.5093662738800049,-0.5705243945121765,0.16605418920516968,-0.2937951683998108,-0.5423354506492615,0.7836341857910156,17.0,-0.35307878255844116,0.5673408508300781,25.25,-0.2749728560447693,0.4872322082519531,17.0,-0.16196244955062866,0.24704933166503906,17.75,-0.1243399977684021,0.14734268188476562,23.25,"[540, 638, 707, 599, 506, 596, 709, 630, 499, 709, 764, 642, 565, 611, 678, 565, 585, 639, 645, 559, 509, 601, 629, 502, 638, 612, 533, 540, 615, 653, 587, 561, 626, 522, 468, 541, 548, 543, 560, 593, 585, 512, 434, 503, 541, 512, 473, 530, 598, 505, 505, 530, 485, 472, 413, 478, 631, 569, 545, 627, 577, 555, 530, 510, 441, 530, 553, 479, 459, 570, 579, 446, 461, 587, 574, 511, 534, 544, 545, 526, 514, 570, 604, 537, 583, 599, 523, 514, 521, 596, 560, 546, 533, 525, 570, 516, 489, 429, 534, 546, 466, 459, 483, 534, 632, 520, 547, 507, 541, 597, 541, 634, 634, 604, 618, 574, 595, 624, 591, 597, 584, 678, 616, 460, 581, 587, 517, 502, 591, 675, 449, 483, 619, 556, 508, 508, 568, 579, 610, 649, 628, 638, 633, 598, 588, 583, 617, 658, 596, 564, 597, 584, 887, 616, 696, 841, 845, 716, 785, 1052, 2369, 918, 1662, 3674, 3582, 984, 2443, 3561, 3951, 1568, 5547, 9621, 7496, 1439, 6202, 7089, 3000, 2425, 5242, 7886, 5627, 3005, 4755, 4762, 1432, 2682, 2777, 1459, 1707, 3730, 4001, 2325, 2176, 1976, 3406, 4184, 2579, 3104, 4450, 3338, 1803, 1210, 2058, 2501, 1216, 2073, 2480, 2144, 1387, 1331, 1772, 1957, 2120, 1805, 2027, 2061, 1557, 2119, 2001, 1343, 1940, 2070, 1890, 1459, 1733, 2341, 1912, 1051, 1853, 1809, 1302, 1198, 1038, 2009, 2688, 1866, 1374, 1478, 2875, 2863, 2646, 3246, 3223, 2119, 1392, 3573, 4850, 4159, 3681, 4146, 2759, 1814, 2213, 3068, 3232, 3194, 2766, 3411, 2389, 1472, 1740, 1429, 1450, 1794, 3087, 3259, 2797, 2215, 2189, 2415, 3076, 3219, 3543, 3270, 5049, 4067, 2833, 3978, 6606, 6799, 2992, 5382, 7312, 4639, 3410, 4228, 8143, 8295, 1617, 5616, 6797, 3432, 2633, 2581, 6207, 6213, 1107, 4366, 5007, 2271, 1613, 1569, 3805, 3706, 1356, 3493, 3591, 1750, 1128, 1617, 2776, 2135, 1486, 2909, 2753, 1501, 1038, 1787, 2371, 1500, 1358, 2046, 1858, 1183, 865, 1179, 1491, 1081, 1296, 1536, 1385, 988, 614, 733, 859, 922, 1693, 2111, 1543, 949, 1005, 746, 629, 832, 2354, 3444, 2481, 1225, 1756, 1684, 1184, 1026, 2463, 3815, 2751, 1416, 2038, 2052, 1887, 945, 1284, 1840, 1406, 875, 1177, 1314, 1286, 850, 1041, 1402, 1124, 726, 782, 726, 939, 789, 1452, 2035, 1464, 755, 886, 777, 1001, 669, 1518, 2120, 1507, 688, 803, 1119, 1250, 670, 1349, 2186, 1766, 738, 993, 1386, 1329, 718, 1025, 1726, 1491, 708, 901, 1085, 1147, 837, 768, 1448, 1541, 757, 753, 839, 1002, 1060, 778, 997, 1212, 796, 671, 608, 848, 1048, 705, 628, 671, 707, 560, 565, 852, 849, 770, 1102, 900, 725, 697, 682, 987, 891, 873, 1421, 1230, 726, 691, 790, 1062, 778, 936, 1399, 1408, 982, 778, 885, 1050, 841, 1006, 1106, 1443, 1475, 931, 1007, 1628, 1424, 1024, 1085, 1561, 1708, 1100, 969, 1951, 1864, 1345, 892, 1640, 2240, 1567, 971, 2648, 2756, 1576, 773, 1608, 2395, 1741, 928, 2949, 3177, 1170, 755, 1178, 1637, 1247, 673, 1794, 1985, 595, 724, 769, 858, 723, 671, 805, 682, 947, 1115, 1069, 906, 582, 993, 1312, 997, 897, 1180, 1200, 1213, 809, 798, 1570, 1337, 772, 719, 1188, 1479, 1132, 702, 1201, 1357, 999, 977, 1444, 1709, 1209, 1319, 1673, 1571, 1054, 1009, 1555, 1925, 1350, 1226, 1615, 1634, 1076, 965, 1329, 1710, 1421, 1294, 1645, 1457, 792, 806, 725, 1097, 1049, 1056, 1379, 1098, 830, 761, 858, 926, 880, 1198, 1211, 879, 1387, 862, 854, 1366, 1610, 1405, 875, 1235, 1378, 603, 986, 1480, 1602, 1160, 966, 1524, 805, 813, 936, 945, 894, 1102, 999, 787, 1338, 908, 1014, 1630, 1558, 1002, 1436, 1710, 823, 1229, 963, 1092, 1417, 1588, 1953, 1358, 1091, 1708, 1556, 1789, 1763, 2225, 2816, 2082, 1042, 1738, 1726, 1716, 1577, 1759, 2655, 2232, 1043, 1338, 1392, 1343, 1227, 1157, 2322, 2378, 749, 925, 1080, 1046, 821, 940, 1782, 1763, 1158, 863, 771, 1106, 1191, 901, 1289, 1553, 3286, 1418, 1036, 2359, 2939, 1656, 2253, 3871, 3277, 1335, 1383, 1970, 2436, 1317, 2239, 3950, 1584, 880, 933, 920, 887, 816, 1098, 1786, 817, 590, 737, 834, 719, 734, 790, 783, 1225, 733, 1109, 987, 991, 742, 1015, 1591, 1414, 886, 1374, 1364, 1184, 726, 1439, 2041, 916, 951, 1143, 1170, 891, 950, 1440, 1378, 617, 706, 652, 653, 728, 811, 1102, 980, 683, 592, 691, 653, 596, 656, 973, 1043, 721, 634, 724, 641, 640, 667, 890, 951, 714, 669, 803, 793, 709, 640, 798, 898, 632, 545, 729, 836, 698, 499, 865, 1035, 677, 677, 584, 602, 622, 754, 802, 757, 995, 637, 1035, 908, 739, 643, 1146, 1421, 1302, 901, 1812, 1595, 899, 736, 1712, 2179, 1140, 843, 1518, 1448, 856, 691, 1529, 1816, 944, 502, 946, 1016, 783, 608, 1047, 1298, 789, 523, 700, 868, 795, 660, 791, 952, 884, 550, 933, 949, 678, 624, 942, 1154, 1020, 639, 1007, 923, 804, 662, 1101, 1439, 1089, 599, 907, 950, 902, 573, 1038, 1464, 953, 621, 720, 815, 781, 626, 909, 1142, 772, 553, 662, 688, 631, 641, 674, 868, 664, 496, 622, 796, 660, 630, 712, 753, 815, 557, 569, 728, 721, 624, 762, 932, 826, 600, 620, 700, 636, 577, 649, 842, 584, 548, 587, 659, 536, 624, 668, 567, 594, 602, 861, 921, 683, 622, 942, 942, 1047, 703, 1244, 1580, 1313, 735, 1848, 2087, 1044, 813, 1231, 1771, 1249, 935, 2334, 2323, 876, 813, 825, 1081, 952, 766, 1476, 1527, 703, 781, 659, 755, 845, 696, 912, 985, 753, 818, 892, 936, 824, 724, 833, 865, 723, 626, 836, 947, 848, 761, 694, 758, 729, 655, 849, 862, 715, 736, 799, 752, 673, 517, 869, 1021, 744, 734, 939, 837, 657, 625, 932, 1040, 685, 762, 1175, 1060, 537, 621, 742, 874, 625, 746, 999, 798, 575, 628, 879, 989, 690, 690, 862, 695, 661, 550, 1577, 1869, 999, 695, 1044, 766, 583, 755, 1655, 1831, 1080, 635, 923, 745, 489, 687, 1000, 1041, 771, 496, 424, 472, 446, 651, 743, 570, 474, 527, 586, 586, 385, 408, 500, 491, 466, 476, 437, 417, 582, 452, 699, 1038, 883, 570, 744, 694, 598, 496, 929, 1365, 1043, 527, 945, 835, 531, 530, 792, 854, 527, 543, 746, 665]"
0.2856887876987457,0.5939640402793884,-0.3731682300567627,-0.17322692275047302,0.7610282301902771,-0.7849851250648499,-0.4157487750053406,-0.4191281199455261,0.6600379943847656,21.75,-0.2260090708732605,0.5258560180664062,17.75,-0.13617295026779175,0.3529071807861328,21.25,-0.10498780012130737,0.46749114990234375,18.0,0.025760948657989502,0.34689903259277344,17.5,"[581, 570, 510, 551, 623, 552, 511, 560, 558, 572, 548, 652, 756, 610, 515, 595, 531, 518, 518, 613, 702, 624, 503, 526, 560, 595, 599, 539, 502, 503, 578, 553, 502, 517, 542, 538, 534, 506, 517, 511, 553, 507, 441, 475, 601, 544, 501, 512, 480, 470, 477, 467, 508, 522, 475, 533, 498, 502, 444, 482, 556, 606, 536, 503, 535, 586, 577, 509, 471, 496, 528, 564, 524, 578, 628, 559, 536, 598, 500, 492, 526, 589, 646, 553, 502, 474, 437, 438, 514, 510, 515, 548, 549, 471, 464, 487, 551, 549, 448, 502, 569, 532, 432, 445, 526, 503, 501, 519, 531, 563, 550, 523, 489, 520, 587, 590, 458, 560, 643, 498, 503, 543, 567, 608, 440, 493, 551, 493, 427, 471, 479, 527, 527, 564, 562, 495, 480, 555, 499, 538, 630, 575, 502, 468, 532, 552, 509, 418, 613, 639, 582, 516, 582, 530, 502, 517, 584, 557, 577, 545, 604, 521, 531, 630, 533, 519, 576, 592, 602, 594, 694, 647, 536, 549, 568, 638, 659, 746, 686, 708, 728, 668, 651, 637, 766, 910, 739, 965, 1078, 927, 812, 714, 648, 666, 764, 880, 882, 890, 741, 578, 734, 981, 1096, 820, 715, 1167, 1396, 1064, 1407, 1459, 1868, 1659, 694, 2394, 4389, 3862, 2891, 1924, 3186, 3007, 1827, 3132, 7062, 6984, 3524, 2398, 3172, 3257, 2045, 3296, 6478, 6660, 3360, 4197, 3950, 2648, 1728, 3607, 4933, 4603, 3544, 4066, 3714, 2349, 1993, 4250, 5514, 4852, 2954, 2934, 2928, 2234, 1510, 3530, 5115, 4737, 1547, 1792, 1934, 1437, 882, 2025, 2852, 2517, 1113, 1755, 1866, 1173, 844, 1784, 1935, 1161, 1922, 2098, 2985, 2304, 1249, 1474, 1803, 2476, 2850, 2745, 4199, 3326, 1968, 2357, 3859, 4759, 2362, 3353, 3608, 2361, 1900, 2934, 4407, 4279, 1371, 2682, 2151, 1038, 906, 2208, 3476, 2383, 1309, 2303, 1581, 875, 731, 2217, 2916, 1518, 1308, 2167, 1758, 1133, 701, 1861, 2327, 1221, 1808, 2044, 1283, 1025, 817, 1705, 1659, 743, 1426, 1306, 1018, 869, 784, 1433, 1190, 648, 702, 966, 1030, 739, 629, 822, 857, 668, 1004, 1326, 1095, 833, 772, 744, 932, 760, 1008, 980, 706, 950, 836, 821, 901, 803, 859, 773, 669, 865, 769, 816, 805, 726, 746, 917, 902, 692, 815, 936, 883, 711, 727, 869, 1043, 815, 785, 967, 1227, 1100, 771, 681, 875, 755, 780, 717, 1195, 1266, 909, 776, 695, 843, 1013, 737, 1015, 1207, 973, 842, 716, 744, 888, 717, 834, 1041, 861, 863, 716, 633, 605, 594, 546, 647, 748, 930, 978, 862, 825, 619, 810, 856, 618, 760, 667, 700, 833, 601, 729, 783, 730, 625, 503, 723, 703, 631, 667, 753, 637, 616, 550, 601, 674, 660, 516, 553, 513, 521, 497, 469, 611, 579, 554, 587, 608, 565, 554, 659, 698, 672, 702, 656, 597, 629, 628, 633, 609, 591, 623, 566, 583, 592, 627, 634, 639, 699, 837, 791, 544, 644, 623, 696, 724, 783, 979, 823, 637, 838, 710, 689, 804, 767, 918, 804, 639, 745, 683, 670, 600, 657, 865, 735, 548, 633, 700, 762, 654, 681, 818, 658, 599, 710, 731, 639, 600, 652, 691, 635, 636, 674, 623, 637, 648, 625, 742, 715, 669, 542, 582, 661, 626, 586, 773, 811, 700, 641, 537, 635, 561, 597, 784, 716, 651, 614, 524, 649, 670, 517, 546, 597, 593, 662, 700, 686, 569, 521, 740, 694, 571, 674, 699, 578, 546, 639, 753, 741, 679, 752, 857, 756, 590, 621, 829, 794, 688, 648, 724, 849, 692, 611, 745, 723, 704, 663, 725, 742, 696, 677, 669, 699, 870, 552, 546, 901, 973, 669, 635, 999, 737, 462, 679, 913, 884, 677, 805, 941, 726, 666, 803, 837, 738, 696, 1080, 980, 739, 743, 744, 809, 665, 835, 1178, 978, 650, 682, 818, 827, 612, 763, 981, 812, 743, 619, 695, 881, 788, 658, 847, 853, 778, 558, 609, 771, 785, 597, 804, 986, 1183, 649, 796, 1312, 1419, 739, 1094, 1605, 1187, 650, 862, 1408, 1441, 672, 1139, 1641, 738, 690, 728, 777, 796, 689, 748, 802, 662, 713, 719, 612, 713, 729, 607, 535, 744, 623, 636, 700, 692, 669, 796, 811, 645, 606, 629, 685, 654, 614, 677, 703, 640, 593, 634, 650, 642, 540, 615, 701, 542, 564, 653, 631, 476, 553, 672, 584, 575, 482, 579, 597, 490, 592, 665, 673, 558, 557, 552, 493, 516, 609, 600, 525, 494, 514, 594, 534, 586, 631, 579, 502, 499, 524, 622, 581, 634, 619, 532, 549, 556, 581, 591, 587, 574, 557, 530, 562, 637, 570, 671, 660, 541, 578, 787, 745, 732, 631, 871, 815, 577, 776, 1098, 1067, 823, 592, 725, 760, 614, 639, 805, 983, 674, 558, 639, 628, 619, 632, 682, 763, 572, 643, 702, 646, 648, 601, 599, 659, 624, 638, 742, 738, 733, 570, 705, 831, 742, 717, 931, 918, 710, 640, 859, 979, 680, 639, 892, 952, 698, 616, 822, 890, 619, 476, 617, 603, 663, 678, 646, 703, 602, 506, 592, 622, 640, 577, 546, 623, 542, 510, 622, 644, 580, 650, 679, 571, 540, 515, 621, 721, 542, 585, 675, 521, 677, 675, 619, 631, 509, 616, 665, 611, 709, 661, 648, 613, 598, 645, 657, 734, 694, 689, 736, 694, 623, 612, 698, 732, 632, 695, 632, 520, 571, 633, 611, 576, 581, 573, 619, 539, 556, 609, 719, 747, 674, 542, 638, 710, 595, 584, 704, 765, 781, 615, 552, 639, 665, 660, 552, 647, 718, 643, 663, 613, 642, 676, 640, 685, 690, 783, 1192, 1175, 706, 675, 957, 994, 617, 671, 870, 895, 692, 537, 773, 803, 452, 469, 570, 593, 506, 498, 584, 602, 522, 597, 721, 672, 556, 561, 798, 792, 477, 634, 709, 591, 532, 593, 746, 672, 505, 498, 547, 541, 510, 602, 590, 512, 482, 499, 603, 615, 501, 551, 528, 492, 451, 543, 700, 650, 466, 426, 506, 541, 409, 389, 442, 493, 454, 411, 411, 504, 443, 449, 443, 442, 467, 400, 472, 539, 369, 398, 401, 385, 418, 454, 459, 425, 429, 414, 449, 397, 394, 440, 408, 400, 448, 394, 441, 500, 406, 446, 472, 448, 368, 396, 425, 425, 404, 477, 522, 439]"
0.2178386002779007,0.7655975818634033,-0.556372344493866,-0.3818894028663635,0.8112894296646118,-1.0916428565979004,-0.7004310488700867,-0.20036089420318604,0.5095481872558594,20.0,-0.19163477420806885,0.4883766174316406,26.0,-0.16159403324127197,0.4683494567871094,26.0,-0.05745279788970947,0.3230094909667969,25.25,-0.05201685428619385,0.3991127014160156,23.0,"[549, 584, 618, 645, 597, 642, 614, 592, 469, 581, 547, 557, 648, 653, 550, 523, 613, 642, 592, 552, 693, 722, 648, 611, 506, 564, 516, 523, 526, 543, 584, 504, 492, 557, 546, 510, 439, 456, 476, 449, 529, 587, 566, 449, 534, 589, 480, 490, 552, 531, 533, 542, 578, 549, 525, 577, 487, 541, 587, 526, 497, 501, 575, 577, 516, 476, 483, 445, 479, 481, 478, 501, 508, 513, 556, 512, 511, 611, 543, 453, 435, 477, 488, 459, 483, 563, 561, 490, 528, 563, 534, 532, 577, 514, 547, 574, 530, 497, 501, 530, 480, 507, 508, 480, 561, 561, 541, 493, 505, 541, 524, 535, 559, 515, 523, 490, 544, 487, 464, 542, 603, 638, 593, 545, 586, 555, 543, 537, 530, 588, 547, 526, 549, 478, 476, 522, 483, 517, 500, 545, 589, 529, 541, 490, 563, 619, 543, 487, 539, 529, 483, 484, 512, 549, 513, 534, 554, 593, 549, 462, 540, 487, 491, 622, 669, 614, 545, 541, 728, 564, 656, 950, 911, 632, 781, 898, 630, 709, 835, 1106, 991, 697, 835, 850, 522, 950, 1052, 859, 1013, 1247, 1073, 811, 523, 700, 855, 640, 815, 1439, 1486, 924, 1420, 1607, 2353, 2792, 1246, 2559, 5161, 4505, 3720, 3277, 4911, 6194, 3388, 4547, 11035, 10441, 4429, 3602, 5182, 6030, 3409, 4978, 11957, 11583, 4533, 4173, 6413, 4504, 3011, 4849, 11576, 11579, 2987, 5576, 7351, 3972, 2572, 4678, 11148, 10659, 1237, 5382, 5822, 2836, 1402, 3522, 7871, 6703, 2614, 3750, 4678, 2645, 964, 3258, 6432, 6132, 2561, 1500, 2691, 2082, 1129, 2231, 4494, 4785, 1027, 4171, 4141, 1674, 670, 2536, 4504, 3276, 2108, 9489, 11625, 6028, 990, 6179, 12662, 11210, 3765, 10300, 13768, 7634, 1733, 5098, 13158, 13161, 3426, 6412, 8933, 4913, 1994, 2102, 7386, 8535, 2568, 1035, 1740, 1306, 1433, 1210, 2619, 3675, 2107, 2815, 2903, 1695, 1527, 1841, 2323, 2415, 1711, 3153, 3163, 1324, 2318, 2856, 1658, 1271, 2106, 1750, 2065, 1505, 1357, 2572, 1933, 1274, 2023, 1542, 2262, 1682, 999, 2468, 1856, 1469, 1344, 1011, 1778, 1296, 903, 2067, 1510, 845, 1389, 1150, 1294, 945, 1029, 1864, 1384, 848, 1096, 838, 1118, 920, 890, 1362, 911, 740, 781, 1144, 1191, 962, 680, 926, 1092, 788, 804, 1481, 1380, 831, 828, 1028, 1179, 858, 759, 1415, 1321, 875, 931, 939, 1062, 772, 826, 1239, 1517, 1250, 839, 916, 1045, 741, 1012, 1228, 1402, 1153, 847, 1053, 1137, 876, 962, 1102, 715, 678, 731, 778, 852, 659, 744, 888, 877, 657, 663, 686, 619, 562, 785, 690, 692, 615, 659, 781, 659, 666, 851, 721, 668, 653, 746, 695, 641, 828, 762, 663, 612, 650, 683, 704, 825, 852, 674, 697, 659, 607, 677, 706, 775, 733, 704, 668, 565, 635, 696, 665, 626, 582, 693, 669, 591, 670, 780, 684, 635, 687, 671, 723, 580, 696, 663, 658, 790, 703, 573, 587, 600, 609, 492, 611, 762, 674, 603, 685, 619, 568, 569, 752, 858, 686, 644, 711, 621, 541, 663, 787, 796, 623, 605, 667, 600, 541, 546, 669, 677, 556, 585, 611, 637, 616, 548, 682, 740, 654, 592, 587, 605, 610, 601, 615, 654, 678, 727, 625, 705, 734, 600, 662, 681, 675, 663, 676, 839, 809, 581, 800, 772, 640, 606, 600, 814, 800, 571, 678, 783, 713, 678, 604, 627, 666, 619, 521, 704, 723, 651, 624, 683, 597, 552, 617, 711, 713, 601, 670, 622, 596, 592, 635, 726, 682, 522, 599, 680, 639, 542, 562, 660, 636, 489, 508, 566, 559, 587, 553, 553, 632, 528, 554, 615, 579, 634, 678, 620, 604, 558, 580, 648, 542, 615, 631, 697, 741, 659, 686, 631, 641, 818, 730, 775, 792, 710, 628, 637, 695, 794, 771, 825, 844, 695, 683, 654, 698, 636, 704, 813, 699, 631, 607, 756, 812, 701, 680, 712, 732, 602, 619, 677, 760, 648, 646, 688, 648, 686, 678, 608, 530, 536, 646, 593, 609, 990, 753, 516, 683, 851, 758, 720, 940, 805, 632, 436, 602, 841, 761, 782, 881, 584, 764, 688, 497, 617, 695, 831, 692, 582, 656, 686, 607, 580, 536, 564, 616, 580, 607, 679, 643, 689, 586, 542, 653, 634, 584, 675, 599, 663, 555, 551, 715, 606, 545, 629, 571, 539, 542, 660, 740, 505, 488, 606, 605, 596, 629, 687, 665, 446, 568, 684, 620, 612, 647, 751, 606, 485, 613, 622, 553, 586, 645, 632, 529, 503, 632, 714, 700, 579, 545, 582, 544, 500, 635, 708, 647, 474, 577, 736, 601, 550, 602, 650, 614, 543, 581, 705, 677, 640, 559, 687, 682, 537, 579, 754, 791, 670, 583, 720, 699, 630, 611, 762, 833, 536, 465, 550, 564, 538, 574, 705, 709, 533, 522, 633, 632, 638, 636, 707, 751, 538, 644, 759, 595, 571, 612, 658, 704, 613, 695, 718, 617, 650, 731, 700, 659, 634, 628, 512, 573, 631, 712, 690, 627, 643, 513, 581, 675, 563, 562, 701, 723, 688, 543, 544, 629, 530, 630, 708, 721, 634, 526, 558, 629, 547, 532, 662, 707, 617, 494, 490, 624, 571, 539, 587, 645, 538, 518, 439, 545, 487, 479, 582, 575, 512, 478, 530, 557, 517, 516, 606, 590, 509, 493, 533, 615, 607, 514, 534, 586, 520, 466, 484, 481, 512, 486, 533, 576, 582, 538, 576, 498, 529, 541, 670, 696, 618, 522, 547, 517, 618, 615, 782, 839, 536, 527, 540, 412, 483, 561, 660, 652, 471, 461, 489, 448, 476, 569, 519, 528, 415, 526, 527, 418, 527, 638, 584, 486, 497, 550, 590, 512, 542, 586, 636, 571, 491, 630, 683, 601, 599, 599, 677, 623, 515, 577, 662, 553, 425, 503, 591, 558, 609, 661, 651, 523, 491, 578, 567, 547, 484, 576, 685, 530, 518, 665, 689, 635, 551, 579, 649, 636, 569, 607, 658, 575, 537, 568, 603, 635, 473, 626, 743, 638, 506, 489, 452, 544, 471, 504, 700, 661, 447, 412, 420, 470, 449, 409, 501, 499, 426, 420, 450, 481, 447, 382, 427, 481, 386, 428, 451, 401, 345, 344, 413, 429, 442, 478, 447, 442, 444, 418, 463, 402, 450, 437, 466, 498, 451, 441, 471, 473, 438, 357, 419, 459, 405, 439, 444, 448]"
0.1953016072511673,0.6539367437362671,-0.5877577066421509,-0.4026038646697998,0.466772198677063,-1.0201374292373657,-0.6351372599601746,-0.14182168245315552,0.4158496856689453,22.25,-0.03410416841506958,0.09012222290039062,25.25,-0.006209194660186768,0.031042098999023438,21.75,0.05644720792770386,0.09813308715820312,23.5,0.3323928713798523,0.0,18.75,"[626, 630, 643, 683, 632, 681, 641, 632, 601, 571, 619, 665, 653, 660, 600, 625, 507, 590, 637, 581, 546, 539, 527, 511, 468, 558, 607, 555, 516, 544, 569, 497, 510, 531, 532, 500, 484, 504, 453, 514, 504, 534, 558, 506, 488, 453, 495, 533, 482, 516, 557, 592, 542, 523, 542, 523, 475, 538, 558, 624, 552, 526, 574, 527, 469, 496, 482, 488, 484, 520, 508, 462, 450, 513, 494, 511, 519, 588, 544, 445, 452, 559, 644, 601, 559, 492, 548, 535, 534, 598, 623, 595, 567, 563, 599, 518, 572, 501, 487, 556, 545, 545, 501, 493, 564, 547, 568, 510, 548, 629, 503, 472, 545, 581, 670, 591, 497, 550, 568, 554, 614, 578, 689, 686, 561, 622, 618, 631, 537, 551, 614, 561, 489, 530, 599, 564, 546, 605, 557, 542, 546, 564, 563, 513, 568, 628, 621, 620, 612, 593, 598, 569, 537, 575, 630, 614, 554, 571, 563, 542, 533, 603, 684, 635, 516, 564, 589, 515, 479, 557, 638, 561, 473, 504, 608, 593, 503, 594, 537, 560, 622, 586, 568, 551, 621, 767, 636, 675, 760, 621, 713, 629, 762, 1323, 1204, 1027, 901, 1167, 2106, 1802, 2757, 3137, 3821, 3005, 2282, 3544, 7516, 7158, 4294, 3944, 5748, 4230, 3223, 4343, 10187, 10360, 2743, 3299, 4746, 2659, 1642, 3145, 6755, 6923, 2412, 4375, 5693, 2536, 906, 4290, 9052, 8566, 2125, 5846, 6636, 2501, 1476, 5541, 11682, 10420, 1247, 3405, 2904, 1713, 1246, 3651, 6594, 5251, 2192, 1602, 2806, 2576, 1154, 2294, 4474, 4414, 1830, 1447, 2351, 1891, 1152, 1183, 3075, 3440, 1487, 3307, 2731, 1046, 1255, 3409, 4388, 2623, 2134, 7860, 7064, 2866, 1462, 7444, 10796, 6842, 2424, 6644, 5720, 2749, 1395, 6268, 9388, 5890, 2322, 3406, 2161, 1404, 1416, 3327, 4163, 2068, 2607, 2670, 1713, 1292, 1612, 2124, 1782, 1785, 2447, 2431, 1760, 1469, 1901, 1703, 982, 2073, 1876, 2039, 2091, 1278, 1643, 2145, 1136, 1238, 1783, 1603, 2218, 1489, 1316, 2327, 1687, 1372, 2274, 1649, 1870, 1993, 1015, 1722, 1548, 1846, 2765, 1473, 2064, 3053, 1873, 1017, 1033, 2139, 2188, 1639, 1960, 2758, 2326, 1574, 1087, 1640, 1265, 1725, 1938, 1828, 1757, 1630, 1132, 1055, 1383, 2281, 2292, 1359, 1110, 1362, 1222, 936, 1779, 2315, 1765, 768, 922, 1200, 1128, 1037, 2272, 2463, 1745, 1454, 1220, 1991, 1929, 1397, 2875, 3361, 2310, 2016, 2438, 3048, 2876, 1999, 2990, 3379, 2864, 2188, 2817, 2679, 2275, 2532, 1678, 1853, 2506, 2036, 1687, 1389, 1251, 1840, 951, 964, 1586, 1321, 693, 1184, 1184, 949, 1033, 903, 1140, 776, 812, 1028, 801, 1073, 834, 812, 1313, 1262, 944, 833, 613, 1022, 864, 685, 1162, 1330, 1009, 767, 678, 837, 867, 899, 825, 898, 987, 929, 687, 671, 802, 855, 747, 673, 787, 922, 768, 685, 689, 784, 767, 655, 571, 634, 859, 847, 587, 782, 816, 663, 675, 737, 815, 702, 677, 915, 1009, 813, 732, 793, 650, 686, 752, 813, 828, 733, 635, 740, 582, 576, 609, 652, 735, 841, 745, 603, 567, 578, 875, 786, 742, 876, 778, 680, 673, 685, 953, 938, 655, 771, 795, 823, 812, 691, 612, 797, 755, 596, 614, 702, 806, 685, 805, 764, 814, 738, 698, 757, 821, 793, 826, 754, 690, 730, 730, 772, 830, 787, 614, 603, 698, 725, 674, 661, 742, 784, 672, 586, 616, 568, 743, 682, 630, 736, 664, 646, 606, 594, 639, 617, 633, 677, 733, 710, 704, 754, 724, 680, 837, 881, 850, 729, 839, 885, 778, 750, 831, 919, 737, 643, 699, 712, 659, 652, 702, 778, 693, 804, 727, 527, 617, 696, 769, 671, 743, 792, 765, 566, 758, 693, 736, 958, 859, 617, 652, 605, 758, 599, 648, 985, 672, 624, 607, 544, 677, 620, 718, 818, 597, 684, 677, 649, 670, 702, 811, 809, 673, 770, 722, 749, 687, 699, 835, 783, 713, 679, 632, 750, 641, 544, 738, 737, 624, 699, 568, 554, 598, 542, 690, 642, 779, 854, 780, 726, 829, 729, 796, 806, 856, 665, 738, 767, 778, 726, 877, 1021, 591, 611, 688, 727, 637, 608, 771, 750, 665, 649, 621, 640, 609, 515, 583, 599, 804, 611, 587, 554, 547, 467, 575, 832, 761, 572, 511, 522, 630, 594, 637, 782, 601, 594, 556, 603, 627, 640, 651, 656, 625, 633, 623, 656, 673, 614, 708, 736, 551, 503, 570, 586, 520, 585, 629, 586, 464, 491, 610, 569, 581, 591, 559, 500, 569, 622, 571, 543, 613, 605, 566, 579, 529, 580, 483, 458, 514, 668, 655, 549, 612, 617, 649, 616, 573, 792, 749, 566, 642, 672, 701, 733, 593, 720, 912, 812, 582, 635, 619, 704, 664, 736, 902, 779, 608, 584, 749, 764, 679, 699, 919, 889, 542, 640, 767, 681, 578, 674, 902, 865, 529, 759, 764, 549, 540, 600, 746, 701, 609, 676, 705, 618, 546, 548, 727, 753, 567, 624, 672, 673, 604, 539, 716, 661, 641, 708, 705, 675, 648, 576, 583, 556, 522, 654, 690, 710, 642, 677, 751, 618, 495, 543, 644, 650, 552, 639, 712, 614, 601, 590, 569, 580, 630, 719, 684, 540, 663, 669, 685, 691, 611, 644, 654, 630, 596, 631, 634, 598, 653, 617, 620, 575, 629, 698, 686, 643, 658, 685, 689, 603, 640, 583, 607, 604, 586, 537, 586, 640, 626, 644, 748, 695, 652, 508, 589, 771, 662, 709, 675, 557, 659, 610, 692, 763, 515, 611, 639, 560, 598, 531, 610, 653, 635, 565, 571, 643, 625, 465, 503, 638, 687, 560, 578, 702, 738, 556, 660, 842, 698, 579, 823, 886, 694, 688, 826, 912, 626, 568, 670, 680, 626, 658, 624, 635, 460, 514, 522, 499, 516, 561, 637, 557, 514, 543, 678, 705, 597, 467, 639, 684, 589, 565, 861, 858, 643, 544, 783, 882, 610, 528, 602, 640, 574, 579, 662, 681, 468, 523, 442, 441, 471, 575, 558, 431, 424, 504, 498, 516, 465, 526, 558, 421, 425, 562, 529, 385, 388, 499, 517, 389, 477, 568, 526, 446, 414, 485, 486, 415, 405, 514, 515, 438, 368, 412, 445, 410, 402, 534, 581, 489, 419, 452, 529, 478, 419, 445, 471, 467, 401, 440, 497, 452, 425, 447, 537, 484, 400, 379, 496, 503]"
0.20895203948020935,0.5713322162628174,-0.5820654630661011,-0.2921749949455261,0.27308011054992676,-0.840533971786499,-0.3718505799770355,-0.2222105860710144,0.5367279052734375,20.75,-0.08187741041183472,0.3117084503173828,19.0,-0.06914585828781128,0.5782127380371094,17.0,-0.04153698682785034,0.4245758056640625,17.75,-0.027088820934295654,0.5209922790527344,15.5,"[669, 661, 640, 643, 646, 643, 643, 662, 598, 666, 589, 682, 745, 711, 692, 621, 512, 622, 576, 513, 588, 650, 646, 505, 474, 461, 563, 553, 461, 548, 512, 438, 415, 406, 489, 453, 474, 560, 561, 512, 467, 450, 479, 489, 457, 544, 568, 496, 498, 579, 551, 452, 452, 572, 529, 436, 464, 582, 645, 565, 535, 534, 567, 512, 489, 489, 506, 550, 482, 480, 544, 514, 480, 436, 480, 554, 495, 462, 487, 520, 590, 503, 490, 575, 590, 474, 472, 617, 585, 531, 527, 547, 527, 533, 611, 611, 578, 523, 473, 539, 564, 597, 553, 549, 535, 543, 599, 612, 536, 529, 561, 561, 510, 589, 580, 562, 494, 466, 527, 493, 463, 536, 496, 518, 568, 471, 488, 542, 435, 497, 523, 488, 471, 512, 573, 557, 622, 658, 542, 476, 513, 573, 571, 515, 568, 606, 512, 430, 511, 593, 549, 454, 561, 515, 611, 632, 552, 455, 554, 632, 699, 610, 704, 898, 807, 577, 730, 837, 1057, 518, 1219, 2060, 1736, 636, 1308, 1625, 1030, 749, 1483, 2579, 2122, 798, 1683, 1790, 871, 1054, 1466, 1481, 1389, 1314, 1336, 1295, 2297, 2597, 3908, 3176, 2303, 1885, 5290, 5594, 4000, 3897, 5696, 4656, 3515, 3897, 9332, 9578, 2510, 2886, 4036, 2033, 1189, 3460, 7275, 7072, 3812, 1992, 3715, 2270, 1982, 2159, 6797, 7743, 2263, 3227, 3912, 2526, 2159, 2793, 7098, 6864, 2300, 4749, 4863, 4676, 2983, 4973, 10555, 8941, 4429, 6149, 9090, 7693, 3486, 6926, 15385, 14255, 3067, 5495, 8221, 5820, 1822, 5634, 11893, 11051, 1432, 3223, 4426, 2604, 682, 2537, 5431, 5148, 2127, 3957, 5736, 3112, 1382, 2643, 6782, 6993, 1724, 6570, 7473, 3326, 1093, 4853, 9948, 8636, 1443, 6541, 5822, 1815, 830, 4895, 8500, 6155, 2214, 6486, 5333, 1645, 754, 4677, 7432, 4620, 4073, 6693, 4363, 1154, 1665, 5281, 6222, 2239, 3193, 5327, 4086, 1412, 1706, 4190, 4656, 1951, 1619, 3110, 3058, 1559, 1054, 2496, 2655, 1212, 1026, 1422, 2079, 1608, 699, 1571, 1649, 1143, 1280, 1909, 2019, 1371, 1012, 999, 1261, 1396, 1547, 1853, 1432, 731, 1060, 1213, 1048, 1120, 1306, 1109, 1005, 916, 789, 1058, 943, 1022, 943, 829, 1505, 1393, 707, 892, 824, 1033, 891, 1376, 1806, 1346, 990, 1078, 855, 996, 1123, 1819, 1997, 1227, 1084, 1548, 1669, 1368, 1322, 2412, 2470, 1480, 1291, 2286, 2729, 1913, 999, 2485, 3239, 2230, 1075, 1857, 2594, 2087, 1275, 1700, 2821, 2218, 893, 1311, 1662, 1987, 1184, 1358, 1395, 1136, 814, 1065, 952, 945, 966, 958, 808, 725, 765, 797, 715, 793, 631, 905, 1196, 953, 650, 711, 741, 832, 800, 1262, 1499, 1194, 743, 657, 841, 838, 798, 1071, 1075, 847, 690, 610, 687, 754, 899, 845, 736, 766, 721, 635, 695, 776, 766, 687, 626, 738, 652, 678, 702, 713, 778, 653, 650, 804, 679, 611, 669, 657, 727, 777, 628, 717, 663, 656, 814, 726, 654, 838, 785, 698, 681, 786, 847, 717, 719, 922, 787, 633, 807, 913, 805, 728, 721, 643, 677, 686, 759, 776, 614, 601, 670, 748, 669, 600, 666, 769, 701, 630, 664, 743, 756, 626, 657, 794, 830, 707, 651, 631, 684, 605, 681, 636, 521, 663, 651, 716, 802, 690, 622, 703, 748, 795, 584, 729, 819, 735, 638, 714, 758, 709, 626, 651, 655, 604, 549, 631, 675, 592, 554, 612, 590, 530, 567, 608, 728, 657, 584, 673, 654, 590, 544, 695, 786, 651, 635, 681, 665, 556, 579, 698, 739, 638, 648, 730, 650, 649, 633, 745, 871, 764, 745, 781, 603, 688, 648, 754, 746, 621, 772, 708, 666, 599, 649, 723, 674, 645, 671, 662, 645, 626, 615, 573, 695, 751, 633, 576, 647, 680, 697, 604, 751, 783, 663, 570, 589, 654, 659, 658, 678, 727, 665, 666, 687, 624, 589, 688, 708, 671, 647, 716, 710, 733, 643, 716, 716, 726, 651, 710, 693, 664, 671, 645, 684, 671, 606, 641, 612, 558, 620, 620, 787, 805, 624, 616, 613, 599, 718, 660, 828, 840, 681, 807, 790, 701, 813, 672, 918, 1002, 719, 719, 776, 716, 732, 861, 971, 917, 554, 589, 748, 765, 635, 749, 827, 747, 613, 717, 802, 728, 617, 686, 686, 609, 734, 690, 648, 606, 642, 597, 671, 728, 728, 760, 731, 573, 654, 748, 839, 769, 440, 513, 602, 531, 480, 633, 774, 646, 545, 658, 683, 558, 581, 673, 704, 634, 553, 578, 688, 619, 583, 604, 539, 602, 606, 636, 727, 726, 596, 619, 682, 654, 710, 690, 548, 540, 645, 623, 659, 715, 569, 702, 652, 536, 520, 572, 717, 637, 597, 751, 729, 601, 642, 706, 654, 544, 654, 646, 786, 730, 631, 684, 796, 764, 597, 524, 704, 747, 604, 554, 877, 875, 544, 539, 713, 725, 572, 556, 860, 836, 640, 529, 569, 655, 613, 507, 772, 828, 657, 551, 588, 675, 681, 509, 888, 1015, 697, 522, 652, 624, 662, 482, 881, 1054, 675, 630, 735, 711, 650, 524, 898, 949, 656, 591, 636, 680, 663, 579, 715, 789, 530, 571, 662, 617, 524, 550, 709, 725, 556, 633, 603, 539, 529, 624, 575, 525, 659, 626, 791, 762, 605, 593, 583, 660, 543, 506, 701, 743, 560, 566, 666, 682, 571, 518, 619, 719, 687, 581, 652, 687, 632, 586, 548, 606, 694, 637, 613, 657, 609, 600, 515, 459, 567, 683, 640, 607, 683, 631, 581, 534, 605, 661, 720, 743, 611, 538, 602, 628, 589, 592, 641, 673, 554, 512, 538, 568, 505, 548, 567, 545, 803, 571, 846, 1068, 800, 610, 741, 875, 1041, 740, 1336, 1519, 997, 590, 1009, 1241, 784, 836, 1129, 1040, 739, 723, 855, 940, 587, 609, 631, 585, 590, 536, 480, 570, 520, 595, 889, 833, 530, 623, 735, 627, 471, 912, 1168, 953, 524, 853, 1091, 827, 547, 937, 989, 742, 463, 877, 1112, 798, 617, 649, 550, 509, 518, 613, 701, 638, 497, 415, 527, 667, 638, 537, 634, 659, 508, 622, 649, 609, 435, 669, 831, 670, 482, 580, 585, 504, 502, 542, 545, 488, 486, 517, 462, 398, 398, 420, 441, 358, 517, 465, 429, 481, 476, 380, 355, 407, 473, 389, 461, 484, 401, 396, 367, 459, 439, 427, 448, 444, 439, 454, 487, 481]"
0.2092089056968689,0.46307870745658875,-0.5937483906745911,-0.23766730725765228,0.0217931866645813,-0.7642766237258911,-0.24243177473545074,-0.09481203556060791,0.43888092041015625,19.0,-0.03229868412017822,0.33516883850097656,18.25,0.0601123571395874,0.13103485107421875,24.5,0.09587514400482178,0.20542144775390625,21.25,0.09845006465911865,0.13475418090820312,25.25,"[687, 647, 650, 677, 644, 678, 653, 646, 579, 629, 608, 672, 609, 581, 604, 573, 423, 511, 583, 553, 555, 590, 560, 422, 530, 516, 546, 586, 593, 497, 468, 472, 522, 482, 539, 553, 509, 512, 516, 515, 519, 498, 531, 539, 524, 544, 549, 511, 490, 483, 525, 541, 415, 412, 454, 518, 554, 506, 561, 546, 524, 480, 483, 545, 600, 489, 494, 566, 511, 499, 494, 530, 547, 520, 520, 564, 541, 572, 536, 550, 577, 510, 581, 701, 650, 493, 515, 589, 470, 463, 599, 643, 583, 506, 566, 523, 527, 525, 545, 531, 471, 499, 572, 530, 586, 596, 653, 557, 565, 611, 567, 596, 452, 505, 546, 545, 513, 524, 565, 498, 452, 493, 525, 570, 568, 575, 568, 470, 498, 519, 481, 595, 682, 553, 511, 502, 633, 567, 544, 604, 624, 558, 512, 620, 611, 552, 595, 593, 670, 666, 591, 604, 557, 518, 574, 494, 549, 568, 584, 552, 610, 587, 589, 667, 648, 623, 603, 598, 690, 487, 865, 1313, 1114, 549, 873, 1043, 739, 613, 1115, 1516, 1063, 658, 1392, 1401, 572, 763, 1205, 1101, 660, 960, 1293, 1114, 826, 1387, 1760, 1385, 929, 1704, 2578, 2117, 1498, 2147, 2753, 1884, 921, 2621, 5049, 4509, 2119, 1294, 1953, 2187, 1387, 2134, 4879, 4840, 4820, 2448, 4885, 4019, 2916, 3323, 9100, 10045, 7024, 3465, 6071, 5204, 3931, 5477, 12369, 13308, 9100, 6330, 9549, 6857, 4636, 8092, 18056, 18640, 7723, 6136, 10058, 6396, 4109, 6847, 16766, 17442, 3184, 3941, 6145, 3927, 2013, 3900, 9397, 9304, 788, 1706, 1765, 1170, 775, 1546, 2839, 2378, 2177, 1241, 2394, 1799, 1247, 1130, 3535, 4148, 2336, 4046, 5216, 3011, 1345, 2675, 6313, 6178, 1296, 3661, 4550, 2446, 1350, 1852, 4935, 4866, 1688, 850, 1085, 1182, 1682, 1100, 1281, 2212, 1592, 1834, 1586, 1312, 1322, 1580, 1488, 1150, 1124, 2469, 2685, 1585, 807, 1291, 1518, 1054, 2632, 5568, 5247, 1909, 1881, 2760, 2575, 1358, 4010, 7439, 6295, 1632, 2719, 3573, 3293, 1110, 2787, 4990, 4224, 1329, 1519, 1988, 2100, 892, 1507, 1984, 1812, 1266, 928, 1019, 836, 911, 1406, 1485, 1138, 1039, 807, 991, 998, 832, 1103, 1368, 1141, 814, 757, 867, 982, 839, 1146, 1699, 1305, 662, 949, 1062, 1187, 843, 1034, 1636, 1272, 599, 764, 880, 1174, 788, 1144, 1914, 1599, 773, 872, 791, 1174, 939, 1077, 1522, 1405, 994, 1263, 944, 926, 1263, 1488, 880, 795, 1178, 1297, 1070, 750, 1290, 1029, 947, 1019, 1109, 876, 800, 925, 931, 683, 778, 948, 852, 560, 1003, 1036, 652, 896, 1061, 881, 649, 606, 1034, 1139, 759, 940, 1117, 935, 617, 664, 780, 961, 859, 975, 799, 602, 812, 812, 582, 663, 907, 905, 774, 541, 744, 886, 827, 589, 712, 659, 646, 631, 631, 652, 651, 555, 592, 725, 686, 809, 780, 558, 640, 766, 766, 730, 692, 768, 808, 704, 708, 769, 804, 684, 674, 688, 637, 748, 759, 642, 729, 606, 683, 655, 583, 667, 678, 622, 632, 551, 756, 807, 616, 629, 649, 681, 680, 561, 721, 772, 623, 665, 680, 718, 688, 638, 878, 849, 651, 669, 748, 760, 640, 631, 827, 798, 601, 635, 747, 769, 640, 660, 811, 729, 615, 694, 727, 770, 704, 700, 860, 728, 628, 730, 695, 798, 720, 599, 649, 633, 605, 558, 560, 742, 696, 614, 577, 536, 625, 599, 500, 511, 515, 608, 521, 672, 669, 617, 579, 568, 639, 596, 721, 682, 595, 600, 603, 623, 596, 589, 736, 663, 601, 614, 621, 654, 594, 700, 662, 667, 638, 639, 532, 668, 741, 642, 620, 651, 645, 641, 643, 615, 706, 705, 608, 761, 900, 816, 636, 631, 773, 628, 572, 734, 872, 750, 597, 759, 799, 706, 581, 617, 780, 695, 644, 746, 761, 650, 690, 660, 810, 691, 666, 850, 787, 621, 728, 747, 834, 736, 648, 799, 791, 777, 665, 638, 757, 782, 642, 666, 783, 661, 583, 530, 564, 592, 632, 503, 591, 817, 637, 667, 775, 797, 696, 638, 798, 834, 584, 684, 776, 785, 660, 723, 899, 732, 646, 671, 784, 674, 604, 679, 763, 794, 612, 714, 812, 637, 620, 707, 834, 727, 666, 583, 567, 614, 589, 551, 644, 644, 623, 541, 518, 543, 512, 566, 614, 604, 564, 571, 607, 614, 488, 540, 612, 486, 580, 650, 605, 529, 502, 590, 570, 547, 584, 659, 667, 592, 583, 595, 553, 621, 624, 566, 529, 570, 517, 454, 490, 587, 620, 676, 603, 578, 526, 580, 623, 622, 598, 626, 625, 516, 564, 630, 575, 705, 604, 571, 626, 595, 506, 680, 750, 678, 513, 576, 573, 584, 578, 616, 702, 664, 542, 663, 646, 559, 581, 619, 716, 641, 639, 683, 619, 478, 535, 634, 661, 580, 571, 631, 566, 526, 556, 533, 581, 601, 615, 599, 557, 600, 641, 621, 569, 576, 669, 626, 599, 574, 576, 641, 555, 550, 541, 565, 526, 568, 554, 522, 559, 540, 585, 602, 591, 571, 534, 623, 613, 613, 571, 536, 580, 568, 585, 594, 549, 580, 545, 595, 586, 559, 564, 510, 576, 522, 539, 638, 633, 615, 561, 606, 650, 608, 564, 582, 594, 624, 561, 523, 604, 608, 592, 560, 560, 619, 600, 562, 583, 641, 613, 571, 518, 617, 670, 631, 636, 630, 619, 583, 504, 581, 635, 633, 612, 602, 584, 607, 663, 622, 559, 541, 557, 739, 622, 648, 771, 755, 602, 614, 715, 646, 574, 551, 627, 648, 569, 540, 634, 567, 530, 517, 528, 545, 540, 544, 539, 544, 587, 551, 581, 536, 493, 573, 594, 654, 626, 531, 577, 616, 596, 610, 706, 580, 625, 564, 541, 625, 589, 649, 660, 555, 488, 477, 548, 556, 480, 547, 544, 509, 440, 646, 635, 518, 523, 592, 602, 570, 622, 858, 839, 586, 755, 787, 656, 529, 590, 727, 702, 569, 655, 637, 559, 505, 543, 527, 555, 534, 493, 528, 462, 457, 438, 531, 587, 478, 533, 551, 446, 414, 492, 554, 487, 468, 535, 534, 475, 468, 467, 555, 500, 452, 480, 501, 529, 380, 417, 450, 425, 460, 412, 404, 399, 460, 390, 459, 527, 521, 465, 406, 420, 407, 397, 389, 425, 441, 404, 396, 440, 411, 357, 388, 406, 449, 412, 370, 430]"
0.15663696825504303,0.5006072521209717,-0.535759687423706,-0.3467658758163452,0.14563539624214172,-0.5014821290969849,-0.3505861163139343,0.04802906513214111,-0.437164306640625,16.25,0.0647660493850708,0.030755996704101562,16.0,0.07721149921417236,-0.06237030029296875,17.25,0.357305645942688,0.07867813110351562,17.75,0.3889199495315552,0.0,15.0,"[662, 609, 581, 643, 615, 641, 582, 610, 617, 579, 587, 628, 617, 633, 615, 598, 636, 551, 528, 657, 636, 599, 585, 620, 557, 611, 545, 519, 501, 472, 500, 512, 458, 535, 563, 439, 413, 484, 487, 430, 478, 554, 641, 584, 446, 572, 635, 562, 443, 467, 548, 568, 481, 516, 631, 530, 510, 562, 531, 505, 496, 522, 561, 556, 446, 496, 547, 444, 530, 567, 527, 492, 490, 592, 555, 480, 535, 621, 568, 469, 602, 526, 607, 673, 529, 583, 678, 613, 579, 549, 559, 611, 595, 574, 513, 480, 490, 533, 540, 535, 557, 502, 512, 500, 512, 505, 582, 544, 544, 609, 610, 597, 589, 549, 572, 583, 574, 579, 506, 556, 583, 578, 527, 538, 591, 566, 598, 597, 494, 466, 481, 450, 533, 527, 465, 450, 527, 590, 480, 479, 514, 586, 549, 493, 519, 543, 578, 526, 601, 661, 577, 495, 519, 565, 589, 593, 595, 577, 582, 516, 567, 670, 574, 574, 634, 572, 619, 545, 617, 737, 852, 847, 666, 549, 684, 644, 652, 714, 990, 1197, 899, 714, 1019, 887, 808, 818, 996, 1079, 899, 1007, 1123, 898, 853, 727, 821, 622, 699, 1109, 1402, 1313, 579, 1042, 1227, 872, 785, 1010, 1374, 1183, 1170, 2198, 3125, 2011, 994, 1603, 3245, 3358, 1293, 2858, 4148, 2671, 959, 1647, 4101, 4187, 1282, 2618, 3315, 2215, 1118, 1303, 3308, 3132, 1359, 1827, 1389, 866, 892, 1041, 1900, 1644, 1146, 1179, 1041, 871, 725, 979, 1144, 1191, 809, 1374, 1476, 803, 757, 941, 1477, 1449, 566, 1192, 1310, 732, 625, 989, 1654, 1443, 573, 2556, 3032, 1560, 639, 1917, 3599, 3029, 617, 4365, 4954, 2479, 573, 3053, 5517, 4389, 819, 3646, 3829, 1791, 655, 2496, 4161, 3033, 697, 1320, 1432, 884, 708, 1536, 1673, 1050, 840, 1018, 1121, 885, 669, 1271, 1214, 586, 661, 851, 931, 949, 676, 578, 592, 712, 789, 1012, 986, 877, 944, 819, 687, 683, 821, 1101, 1071, 793, 750, 763, 789, 749, 893, 1277, 1266, 793, 564, 690, 835, 814, 699, 1161, 1257, 759, 576, 836, 684, 639, 765, 912, 896, 690, 628, 811, 735, 597, 732, 847, 668, 560, 778, 768, 669, 575, 750, 778, 542, 596, 779, 689, 656, 639, 744, 823, 704, 671, 721, 648, 713, 749, 709, 937, 870, 606, 602, 676, 784, 709, 804, 898, 743, 658, 688, 752, 722, 585, 808, 679, 707, 733, 744, 778, 618, 673, 581, 585, 764, 719, 703, 680, 614, 644, 573, 642, 730, 659, 601, 610, 575, 680, 522, 484, 613, 601, 609, 638, 610, 658, 759, 671, 583, 557, 587, 586, 578, 695, 764, 739, 624, 547, 566, 578, 563, 668, 564, 614, 587, 549, 549, 631, 677, 594, 527, 547, 541, 516, 503, 536, 540, 516, 535, 582, 665, 645, 626, 594, 683, 688, 514, 599, 692, 694, 646, 650, 692, 662, 566, 599, 605, 575, 628, 668, 639, 654, 500, 568, 613, 593, 633, 665, 587, 536, 524, 583, 614, 617, 620, 598, 616, 526, 555, 605, 637, 621, 548, 577, 652, 585, 648, 631, 584, 637, 680, 563, 489, 546, 536, 585, 650, 611, 620, 530, 519, 606, 507, 607, 716, 616, 530, 585, 678, 636, 584, 619, 678, 635, 595, 660, 693, 641, 600, 595, 657, 668, 572, 532, 624, 638, 697, 554, 524, 622, 620, 554, 513, 658, 591, 596, 551, 596, 598, 558, 577, 571, 482, 564, 567, 545, 463, 585, 618, 530, 554, 658, 582, 488, 588, 616, 557, 429, 516, 583, 691, 595, 592, 660, 589, 500, 584, 586, 669, 597, 601, 616, 588, 652, 635, 644, 683, 575, 642, 554, 553, 739, 612, 611, 550, 697, 708, 592, 683, 733, 631, 650, 599, 686, 671, 625, 692, 624, 613, 512, 572, 638, 573, 528, 717, 746, 620, 538, 565, 664, 674, 566, 624, 694, 670, 611, 591, 571, 602, 618, 599, 650, 598, 609, 634, 522, 613, 675, 580, 603, 699, 643, 675, 764, 855, 699, 585, 729, 655, 561, 644, 782, 868, 705, 672, 811, 568, 617, 651, 695, 706, 652, 722, 721, 547, 533, 643, 689, 624, 616, 706, 689, 610, 594, 622, 638, 659, 639, 667, 675, 649, 607, 605, 616, 653, 739, 639, 613, 580, 690, 683, 570, 573, 684, 687, 585, 564, 698, 707, 582, 570, 572, 660, 619, 706, 689, 644, 665, 670, 638, 661, 672, 648, 653, 518, 570, 644, 697, 608, 525, 527, 661, 593, 414, 518, 677, 580, 441, 525, 580, 527, 417, 427, 587, 542, 471, 552, 636, 645, 534, 404, 485, 584, 549, 547, 537, 590, 569, 530, 474, 628, 649, 602, 607, 653, 643, 570, 591, 653, 700, 626, 543, 574, 569, 458, 535, 700, 724, 418, 467, 576, 587, 460, 507, 638, 580, 489, 532, 591, 617, 589, 553, 575, 591, 560, 597, 585, 539, 575, 635, 646, 637, 643, 558, 605, 612, 580, 577, 599, 621, 649, 686, 643, 681, 646, 580, 608, 625, 512, 582, 613, 645, 575, 526, 601, 600, 536, 565, 608, 623, 551, 601, 613, 591, 612, 554, 499, 537, 541, 615, 608, 566, 597, 614, 542, 586, 606, 666, 652, 563, 599, 612, 620, 638, 634, 600, 634, 612, 633, 643, 600, 622, 616, 639, 617, 635, 596, 591, 638, 652, 612, 639, 689, 696, 583, 545, 663, 649, 588, 598, 580, 651, 560, 549, 588, 634, 628, 558, 558, 604, 507, 544, 663, 686, 660, 589, 698, 618, 474, 548, 640, 610, 663, 633, 599, 634, 503, 580, 616, 596, 600, 607, 518, 563, 450, 588, 645, 680, 508, 572, 642, 537, 460, 609, 630, 626, 524, 553, 670, 492, 521, 602, 528, 591, 588, 597, 591, 555, 544, 620, 575, 492, 533, 612, 564, 533, 523, 624, 741, 696, 544, 606, 688, 643, 492, 630, 620, 611, 551, 616, 716, 566, 457, 586, 648, 538, 428, 536, 576, 501, 475, 535, 553, 562, 487, 465, 484, 487, 447, 550, 516, 480, 506, 468, 418, 472, 484, 511, 406, 446, 514, 446, 437, 480, 411, 415, 405, 367, 381, 382, 404, 415, 384, 452, 369, 395, 385, 414, 450, 374, 407, 423, 451, 405, 374, 397, 375, 428, 408, 407, 432, 411, 371, 408, 427, 422]"
0.12342783063650131,0.4102800488471985,-0.4849085509777069,-0.370674192905426,-0.01747077703475952,-0.35248318314552307,-0.33171331882476807,-0.0983627438545227,0.48050880432128906,21.75,-0.07461625337600708,0.3394603729248047,23.0,-0.04586297273635864,0.2600669860839844,23.5,0.012644946575164795,0.3757953643798828,18.75,0.05012434720993042,0.3071308135986328,22.25,"[556, 698, 772, 744, 782, 739, 772, 703, 605, 647, 703, 754, 791, 687, 685, 655, 533, 606, 629, 606, 696, 674, 563, 497, 523, 545, 544, 548, 651, 639, 525, 470, 449, 522, 545, 452, 482, 524, 491, 444, 546, 538, 588, 624, 612, 525, 474, 497, 565, 534, 519, 583, 537, 555, 558, 544, 587, 506, 483, 604, 609, 541, 519, 543, 484, 519, 529, 560, 500, 453, 507, 511, 498, 539, 529, 489, 473, 441, 469, 526, 520, 475, 529, 512, 437, 440, 507, 569, 573, 508, 537, 527, 472, 500, 436, 511, 479, 400, 526, 576, 409, 434, 586, 549, 506, 476, 497, 511, 463, 437, 518, 562, 456, 561, 544, 498, 492, 537, 580, 540, 559, 591, 634, 593, 459, 491, 691, 669, 571, 638, 576, 517, 503, 507, 600, 570, 607, 643, 571, 548, 484, 509, 653, 618, 578, 575, 569, 494, 515, 610, 667, 646, 595, 557, 569, 676, 648, 669, 785, 779, 1299, 641, 1062, 1720, 1607, 893, 1369, 1815, 1993, 983, 3133, 4511, 3073, 895, 3597, 3809, 1916, 2418, 5628, 6852, 3487, 3338, 6754, 5369, 2288, 3862, 6357, 5995, 1919, 5108, 7188, 4616, 3555, 3994, 6803, 4743, 2805, 3837, 8043, 8697, 5731, 3438, 6613, 6740, 5515, 2539, 9787, 11499, 4858, 2891, 5969, 6211, 4744, 1876, 7251, 8950, 2807, 2023, 4557, 4298, 2947, 625, 3929, 5352, 2150, 3958, 4312, 3021, 2782, 1645, 2571, 3360, 2349, 5343, 5582, 3339, 3090, 1558, 4114, 4442, 2327, 4830, 5109, 3074, 3055, 1556, 4344, 4718, 2313, 3934, 3030, 1509, 2602, 1337, 1852, 2104, 1935, 2293, 1506, 870, 1577, 1658, 1203, 1098, 1106, 1022, 1487, 1231, 734, 1141, 1621, 1708, 1013, 2056, 2543, 1987, 1235, 1996, 2800, 2177, 1067, 2460, 2592, 2099, 2078, 2483, 2644, 1661, 1092, 1591, 1463, 1333, 2390, 2778, 1973, 914, 1777, 2307, 1603, 913, 2083, 3001, 2374, 840, 1727, 2351, 1616, 709, 1282, 2009, 1762, 662, 1247, 1862, 1746, 985, 631, 558, 842, 773, 1697, 2534, 2296, 1263, 931, 1003, 1093, 969, 1638, 2142, 1748, 1031, 1032, 1028, 877, 851, 892, 1165, 1059, 709, 727, 766, 827, 780, 865, 627, 809, 1034, 958, 774, 861, 981, 730, 758, 1011, 1002, 896, 826, 836, 778, 930, 1010, 1084, 752, 1023, 1322, 1118, 1028, 1128, 1270, 1164, 706, 1102, 1656, 1466, 1210, 1021, 1411, 1324, 833, 992, 1445, 1301, 930, 1068, 1108, 898, 789, 884, 851, 828, 798, 1266, 1387, 898, 635, 824, 822, 712, 725, 878, 1214, 1081, 723, 695, 907, 889, 709, 723, 809, 839, 767, 728, 755, 776, 655, 1018, 1070, 724, 686, 777, 668, 596, 646, 861, 852, 710, 712, 715, 840, 673, 625, 686, 1010, 911, 614, 679, 764, 773, 620, 835, 1013, 715, 582, 724, 692, 666, 550, 521, 537, 623, 677, 660, 669, 718, 563, 600, 695, 789, 736, 601, 663, 975, 840, 557, 711, 825, 733, 587, 807, 1081, 838, 553, 710, 1051, 928, 561, 755, 966, 807, 623, 737, 832, 983, 661, 834, 1375, 1198, 708, 1039, 894, 853, 773, 914, 1504, 1224, 557, 881, 883, 664, 613, 770, 1057, 888, 730, 678, 658, 658, 697, 813, 775, 718, 640, 765, 765, 688, 625, 674, 713, 683, 702, 727, 702, 729, 756, 680, 673, 739, 773, 801, 835, 948, 996, 791, 944, 976, 902, 835, 737, 904, 1033, 759, 535, 827, 741, 806, 700, 720, 851, 942, 846, 703, 641, 646, 712, 728, 514, 630, 736, 670, 722, 729, 710, 724, 709, 634, 609, 631, 868, 664, 656, 702, 730, 742, 647, 806, 720, 650, 832, 665, 769, 886, 956, 1055, 787, 1010, 959, 793, 963, 1002, 1004, 901, 870, 975, 927, 1074, 1174, 1053, 779, 703, 951, 869, 963, 1186, 1081, 712, 1163, 1251, 1072, 903, 983, 1506, 1040, 1131, 2147, 1928, 1055, 642, 1234, 1842, 1157, 1126, 2289, 2122, 1201, 760, 1389, 1647, 1132, 733, 1878, 2079, 1153, 1093, 1650, 1622, 959, 972, 2152, 2189, 867, 1490, 1545, 1009, 684, 1117, 1750, 1409, 1414, 1362, 1094, 1129, 1525, 1063, 1286, 1659, 1593, 996, 1097, 1362, 1496, 862, 1154, 1938, 876, 792, 918, 990, 822, 707, 816, 1053, 580, 578, 706, 801, 686, 625, 705, 673, 583, 567, 599, 666, 645, 499, 611, 717, 722, 774, 763, 673, 694, 658, 960, 1020, 775, 875, 977, 838, 723, 736, 1155, 1137, 666, 702, 809, 787, 682, 698, 939, 885, 702, 721, 726, 662, 639, 694, 784, 702, 677, 690, 617, 666, 665, 573, 633, 651, 667, 651, 771, 856, 767, 575, 722, 870, 647, 590, 926, 961, 697, 575, 792, 851, 636, 614, 816, 858, 704, 641, 674, 690, 672, 603, 703, 681, 658, 740, 920, 951, 1032, 754, 1264, 1021, 854, 729, 1418, 1728, 918, 732, 1196, 945, 773, 632, 1242, 1580, 761, 630, 844, 714, 630, 573, 784, 1000, 639, 508, 721, 637, 550, 504, 514, 736, 869, 487, 805, 755, 600, 535, 729, 1036, 848, 589, 957, 919, 611, 621, 982, 1218, 839, 708, 892, 798, 622, 640, 899, 1082, 654, 683, 809, 657, 598, 680, 878, 944, 547, 495, 584, 507, 601, 604, 579, 655, 474, 599, 609, 525, 581, 580, 561, 511, 515, 574, 626, 493, 558, 667, 656, 598, 560, 590, 663, 561, 510, 628, 608, 540, 542, 539, 628, 646, 551, 589, 625, 575, 643, 711, 669, 701, 618, 614, 631, 523, 711, 757, 872, 991, 853, 689, 1118, 1040, 640, 620, 834, 1242, 955, 786, 1475, 1372, 613, 817, 803, 883, 751, 737, 1190, 1051, 573, 672, 577, 587, 550, 629, 785, 647, 528, 694, 639, 596, 615, 687, 651, 532, 530, 743, 765, 576, 534, 556, 672, 657, 520, 635, 518, 537, 604, 512, 678, 674, 556, 561, 509, 585, 725, 653, 727, 694, 726, 642, 579, 581, 720, 718, 642, 734, 669, 606, 562, 589, 690, 682, 676, 735, 592, 624, 628, 616, 662, 644, 603, 574, 558, 656, 973, 1193, 871, 518, 630, 641, 549, 774, 1297, 1450, 934, 558, 841, 714, 476, 623, 923, 876, 538, 536, 705, 636, 472, 512, 642, 543, 458, 454, 537, 596, 430, 447, 434, 382, 393, 414, 430, 462, 392, 445, 485, 443, 340, 405, 586, 554, 434, 504, 465, 443, 430, 514, 628, 528, 446, 451, 409, 412, 507, 492, 449, 460]"
0.10289708524942398,0.346179723739624,-0.35630035400390625,-0.3487202525138855,-0.04699365049600601,-0.05928695201873779,-0.2453467845916748,-0.0980713963508606,0.4145622253417969,24.75,-0.09392291307449341,0.4840850830078125,21.0,-0.07275134325027466,0.50811767578125,15.5,-0.054583847522735596,0.3826618194580078,25.75,0.0010630488395690918,0.35190582275390625,15.75,"[755, 643, 582, 557, 546, 556, 584, 643, 588, 688, 655, 543, 505, 585, 663, 575, 549, 596, 538, 467, 531, 528, 508, 505, 521, 521, 441, 484, 481, 418, 421, 440, 506, 506, 497, 521, 511, 487, 492, 523, 432, 500, 517, 586, 557, 635, 653, 538, 450, 484, 504, 519, 448, 480, 573, 461, 603, 502, 466, 543, 600, 599, 504, 508, 526, 491, 449, 459, 537, 528, 540, 553, 509, 517, 503, 486, 530, 485, 502, 540, 526, 482, 505, 502, 514, 449, 459, 521, 548, 486, 540, 540, 535, 556, 583, 614, 553, 450, 488, 504, 479, 555, 556, 566, 495, 465, 611, 663, 487, 546, 610, 553, 463, 462, 548, 550, 521, 529, 569, 583, 504, 545, 591, 549, 561, 522, 520, 581, 530, 432, 475, 558, 530, 469, 515, 575, 520, 491, 582, 645, 610, 518, 582, 602, 572, 615, 639, 617, 638, 625, 596, 554, 559, 573, 603, 635, 657, 670, 552, 521, 824, 692, 737, 913, 953, 722, 862, 908, 1147, 629, 1578, 2493, 1869, 733, 2002, 2096, 1202, 890, 2508, 3311, 1863, 1569, 3143, 2686, 1051, 843, 2162, 2448, 1114, 2511, 3496, 2457, 1926, 1376, 2122, 3312, 1598, 3275, 6343, 5441, 5170, 3255, 5283, 6239, 4550, 3914, 11310, 11814, 6801, 3631, 6767, 7141, 5586, 3645, 12494, 14019, 2579, 2310, 3338, 2912, 1998, 2042, 4997, 5206, 1841, 2500, 2544, 1247, 1452, 1540, 3794, 4006, 1873, 4508, 5653, 3240, 1266, 2742, 6350, 6023, 4868, 5449, 8975, 6483, 3196, 3884, 11274, 11981, 2984, 3201, 5652, 4176, 1976, 2419, 6967, 7478, 777, 1534, 1562, 929, 735, 1351, 2428, 2205, 705, 3673, 4063, 2014, 881, 3052, 5584, 4553, 1632, 4422, 4748, 2627, 1358, 3248, 5380, 4260, 2610, 4829, 7052, 5026, 1936, 2452, 5196, 5405, 1504, 3085, 5338, 4080, 839, 2028, 2439, 3112, 961, 1826, 2451, 2290, 1079, 2419, 3428, 2391, 1381, 3038, 4679, 3582, 919, 2724, 4459, 3889, 3142, 4138, 5231, 3908, 1297, 4420, 4752, 3048, 3091, 2884, 2590, 1922, 1498, 3888, 3277, 1217, 1464, 1301, 1003, 761, 1476, 2063, 1397, 757, 1652, 1459, 892, 822, 950, 876, 1008, 1385, 1619, 1385, 924, 935, 780, 790, 896, 1262, 973, 1015, 931, 843, 833, 828, 668, 819, 811, 942, 955, 796, 749, 955, 877, 721, 685, 734, 790, 727, 586, 842, 1088, 913, 1206, 1050, 1303, 1131, 1260, 1805, 1919, 1633, 1945, 1563, 1879, 1111, 1852, 2695, 1976, 1753, 1761, 1253, 2191, 1446, 1311, 2492, 1761, 1410, 936, 1408, 2197, 1615, 1011, 1738, 1374, 966, 762, 1532, 1905, 1405, 944, 915, 858, 789, 874, 1425, 1344, 840, 691, 921, 1019, 817, 781, 894, 848, 699, 687, 880, 824, 736, 870, 802, 702, 687, 816, 965, 841, 838, 1049, 1001, 726, 625, 936, 1003, 660, 727, 921, 908, 641, 639, 797, 930, 811, 654, 676, 691, 711, 772, 698, 768, 863, 813, 823, 750, 731, 744, 724, 727, 742, 859, 952, 957, 800, 794, 817, 667, 728, 843, 762, 620, 781, 911, 686, 573, 971, 1051, 635, 493, 663, 757, 610, 678, 975, 981, 707, 507, 734, 794, 566, 518, 855, 973, 795, 515, 826, 932, 726, 605, 893, 978, 637, 531, 708, 740, 624, 606, 670, 640, 586, 635, 713, 623, 530, 639, 633, 554, 382, 582, 703, 619, 538, 696, 765, 600, 642, 642, 686, 714, 618, 726, 786, 714, 720, 586, 685, 866, 718, 675, 700, 674, 500, 539, 617, 652, 580, 596, 541, 542, 610, 562, 493, 609, 538, 586, 612, 612, 696, 627, 589, 610, 651, 657, 632, 601, 787, 856, 786, 704, 853, 707, 870, 946, 654, 826, 754, 704, 714, 657, 1034, 999, 788, 704, 729, 677, 843, 775, 1028, 1146, 757, 677, 763, 724, 840, 781, 843, 908, 607, 667, 788, 849, 745, 670, 746, 773, 629, 617, 853, 889, 686, 714, 919, 930, 691, 856, 817, 743, 742, 723, 1140, 1165, 700, 934, 816, 783, 768, 734, 1321, 1291, 713, 908, 767, 768, 734, 840, 1034, 887, 1158, 879, 776, 878, 1105, 1047, 815, 993, 1139, 860, 717, 844, 983, 890, 790, 1079, 685, 643, 751, 788, 638, 631, 805, 815, 507, 590, 720, 686, 619, 607, 661, 594, 574, 606, 623, 534, 587, 636, 529, 525, 607, 581, 559, 560, 588, 565, 584, 601, 599, 597, 687, 596, 516, 560, 702, 782, 617, 551, 572, 543, 474, 488, 524, 569, 514, 561, 608, 634, 528, 612, 694, 599, 506, 533, 574, 617, 577, 498, 656, 677, 465, 539, 612, 719, 688, 580, 757, 735, 582, 609, 719, 798, 602, 610, 781, 679, 755, 670, 905, 993, 689, 543, 722, 721, 748, 583, 792, 985, 815, 618, 834, 906, 616, 538, 668, 749, 647, 638, 708, 727, 586, 623, 723, 656, 539, 647, 658, 540, 591, 562, 752, 772, 612, 628, 688, 692, 708, 628, 783, 836, 678, 626, 760, 845, 756, 598, 804, 837, 697, 560, 763, 900, 618, 595, 809, 792, 577, 550, 750, 796, 562, 552, 601, 547, 531, 434, 572, 642, 626, 608, 594, 606, 650, 581, 552, 671, 650, 702, 527, 530, 627, 680, 590, 598, 497, 458, 485, 578, 556, 530, 601, 550, 545, 489, 568, 574, 628, 572, 584, 624, 650, 693, 678, 659, 623, 710, 707, 605, 619, 699, 708, 702, 687, 659, 597, 525, 558, 607, 638, 729, 645, 594, 692, 658, 626, 576, 690, 820, 714, 576, 862, 847, 709, 647, 762, 812, 652, 555, 911, 953, 632, 664, 622, 698, 645, 587, 746, 728, 564, 648, 643, 643, 619, 715, 676, 505, 508, 629, 617, 575, 595, 689, 638, 469, 496, 512, 508, 575, 572, 569, 614, 561, 546, 557, 511, 552, 549, 532, 601, 633, 503, 524, 532, 523, 480, 447, 581, 571, 520, 577, 639, 582, 508, 539, 660, 583, 564, 659, 800, 723, 567, 571, 608, 596, 532, 527, 685, 655, 537, 554, 526, 527, 591, 579, 700, 728, 572, 546, 660, 661, 530, 489, 747, 767, 525, 538, 802, 806, 481, 574, 573, 498, 476, 485, 655, 579, 503, 505, 503, 518, 448, 491, 531, 493, 423, 358, 367, 402, 405, 415, 448, 455, 419, 400, 425, 392, 426, 461, 465, 413, 431, 456, 466, 430, 468, 382, 546, 598, 440, 482, 464, 421, 432, 451, 473, 431]"
0.11341804265975952,0.33998173475265503,-0.1428954303264618,-0.23963095247745514,0.08621051162481308,0.36907804012298584,-0.04769325256347656,-0.29394662380218506,0.5899429321289062,21.25,-0.2498868703842163,0.5872249603271484,21.75,-0.055480360984802246,0.4524707794189453,17.0,0.005173325538635254,0.3201484680175781,16.25,0.12533628940582275,0.41656494140625,16.75,"[544, 550, 571, 578, 546, 579, 576, 554, 453, 554, 660, 592, 465, 536, 611, 530, 491, 633, 697, 546, 517, 622, 643, 492, 511, 541, 638, 614, 563, 619, 654, 555, 438, 455, 548, 538, 530, 476, 502, 510, 470, 488, 524, 516, 539, 498, 464, 500, 547, 600, 495, 480, 530, 576, 567, 479, 585, 585, 598, 526, 552, 603, 549, 587, 507, 484, 494, 502, 459, 560, 545, 457, 590, 526, 446, 487, 514, 512, 529, 553, 602, 585, 566, 573, 534, 521, 570, 633, 641, 596, 537, 552, 511, 570, 578, 594, 607, 599, 568, 603, 549, 442, 515, 580, 567, 570, 536, 496, 554, 554, 553, 639, 526, 558, 556, 403, 539, 598, 478, 505, 579, 615, 557, 486, 544, 488, 478, 555, 575, 519, 561, 605, 595, 562, 496, 584, 599, 644, 599, 538, 507, 588, 578, 520, 581, 617, 562, 555, 546, 548, 617, 582, 522, 535, 595, 583, 573, 589, 754, 717, 799, 549, 702, 1066, 991, 635, 990, 1099, 1142, 616, 1446, 2176, 1564, 709, 1952, 2034, 1266, 1338, 2719, 3127, 1728, 2032, 3339, 2751, 1032, 1579, 2762, 2613, 1597, 2886, 3464, 2264, 1014, 1397, 1670, 1984, 1057, 2583, 3909, 2856, 2903, 2134, 2988, 3946, 2861, 2905, 7556, 7501, 4229, 2237, 3609, 5451, 4440, 2768, 8693, 9390, 1142, 1564, 2598, 3229, 2396, 1306, 2517, 2372, 2837, 1865, 2818, 2814, 1255, 1559, 3684, 4258, 2379, 5375, 5412, 5468, 2329, 5887, 10860, 8671, 3635, 8123, 9624, 9394, 4219, 9512, 19426, 16513, 2148, 4478, 5441, 5806, 2548, 5863, 11905, 10016, 901, 879, 1341, 1277, 617, 1149, 1775, 1559, 1740, 3698, 4176, 2385, 1177, 1931, 4253, 3892, 3573, 5590, 4955, 2906, 1842, 4153, 6038, 4487, 4038, 5149, 3493, 2269, 2216, 3735, 3938, 2063, 3335, 5606, 4413, 2324, 1956, 3776, 5541, 4217, 2067, 3530, 4541, 2885, 1190, 2827, 5757, 5395, 1807, 3568, 4533, 2794, 1020, 3404, 6085, 5319, 2267, 3597, 3057, 2286, 1165, 3030, 4705, 3461, 2811, 4000, 2932, 1620, 1612, 2661, 3540, 2410, 2574, 3759, 2896, 1575, 1695, 2745, 2997, 1627, 1513, 2480, 1937, 1280, 828, 2220, 2870, 1748, 1028, 1037, 1857, 1891, 915, 1396, 2318, 2009, 1410, 1161, 1707, 1716, 1119, 707, 1439, 1771, 1033, 834, 1622, 1635, 951, 679, 1177, 1460, 887, 1260, 2225, 1924, 820, 1020, 1159, 1145, 1015, 1354, 1964, 1636, 603, 1739, 1822, 984, 906, 1345, 1407, 1432, 574, 1575, 2030, 1117, 744, 1484, 2070, 1782, 859, 997, 1469, 1230, 696, 1372, 1931, 1544, 697, 947, 1120, 1019, 766, 916, 1241, 1056, 625, 664, 771, 820, 938, 1054, 1109, 999, 758, 847, 1025, 932, 971, 1042, 950, 863, 803, 845, 934, 906, 898, 892, 808, 675, 599, 741, 829, 849, 729, 860, 653, 691, 759, 896, 938, 671, 737, 1030, 892, 831, 657, 1032, 1368, 988, 985, 1072, 915, 789, 701, 1016, 1297, 1049, 748, 855, 850, 660, 607, 860, 861, 666, 809, 734, 754, 711, 622, 635, 828, 835, 714, 734, 600, 696, 658, 839, 914, 660, 725, 850, 890, 883, 726, 856, 962, 742, 643, 724, 699, 684, 646, 683, 807, 702, 721, 657, 730, 697, 650, 723, 727, 718, 654, 633, 773, 638, 586, 651, 565, 697, 614, 710, 900, 735, 684, 627, 826, 931, 622, 746, 959, 797, 743, 852, 1176, 1113, 594, 654, 723, 725, 714, 764, 867, 800, 806, 675, 625, 665, 726, 655, 633, 796, 802, 717, 615, 504, 746, 753, 694, 810, 633, 628, 691, 651, 581, 649, 623, 708, 597, 676, 715, 703, 698, 745, 704, 627, 636, 748, 702, 648, 629, 807, 766, 610, 757, 801, 827, 745, 712, 743, 881, 910, 621, 777, 1053, 912, 700, 702, 850, 827, 670, 710, 825, 814, 842, 753, 724, 746, 757, 703, 585, 628, 816, 658, 700, 835, 732, 664, 601, 707, 705, 756, 911, 818, 566, 606, 566, 616, 532, 687, 786, 617, 632, 776, 730, 616, 601, 797, 1129, 942, 575, 720, 783, 635, 675, 932, 1098, 901, 699, 647, 634, 581, 636, 713, 760, 757, 661, 650, 676, 697, 614, 547, 598, 633, 663, 675, 655, 698, 622, 625, 728, 613, 624, 701, 726, 611, 572, 747, 757, 622, 678, 718, 689, 597, 564, 799, 720, 527, 739, 733, 736, 645, 643, 754, 695, 682, 610, 661, 671, 550, 615, 676, 754, 765, 589, 557, 644, 627, 593, 605, 647, 675, 639, 682, 617, 652, 565, 664, 693, 626, 685, 615, 543, 595, 593, 671, 657, 676, 705, 667, 612, 596, 597, 688, 750, 683, 525, 669, 790, 749, 596, 671, 751, 660, 541, 657, 819, 717, 643, 639, 725, 665, 576, 594, 672, 722, 690, 592, 666, 658, 551, 612, 767, 715, 579, 639, 717, 768, 720, 660, 821, 722, 643, 780, 923, 915, 763, 725, 791, 703, 637, 799, 867, 830, 662, 714, 780, 682, 557, 645, 791, 770, 575, 648, 771, 676, 603, 594, 787, 836, 570, 614, 801, 728, 660, 640, 795, 841, 565, 632, 655, 640, 621, 655, 786, 781, 706, 637, 716, 664, 600, 573, 785, 849, 620, 616, 784, 734, 525, 536, 806, 852, 575, 553, 653, 631, 474, 572, 727, 685, 640, 619, 613, 615, 567, 607, 610, 666, 635, 567, 724, 726, 619, 593, 688, 733, 598, 610, 714, 680, 533, 587, 688, 728, 664, 604, 604, 591, 623, 605, 632, 735, 708, 754, 707, 610, 650, 740, 637, 629, 603, 594, 680, 708, 675, 635, 625, 658, 579, 604, 681, 707, 619, 584, 565, 551, 512, 535, 616, 653, 504, 606, 622, 494, 619, 538, 650, 738, 705, 657, 669, 641, 661, 551, 564, 719, 693, 561, 575, 629, 580, 620, 651, 706, 712, 618, 602, 593, 531, 568, 529, 599, 623, 555, 489, 507, 608, 599, 592, 569, 637, 625, 484, 562, 626, 420, 637, 675, 480, 558, 579, 660, 570, 520, 591, 556, 436, 460, 526, 634, 521, 539, 693, 757, 564, 547, 675, 621, 566, 499, 712, 930, 768, 523, 691, 720, 449, 474, 550, 576, 507, 412, 509, 533, 411, 494, 546, 451, 440, 489, 507, 480, 423, 470, 567, 426, 376, 406, 523, 551, 384, 435, 505, 483, 441, 560, 662, 525, 445, 389, 452, 446, 467, 466, 506, 504, 433, 421, 483, 488, 431, 465, 520, 475]"
0.07697697728872299,0.28293517231941223,0.15995238721370697,-0.2797859311103821,0.06148608773946762,0.8126773834228516,-0.09071718156337738,-0.11758005619049072,0.43087005615234375,18.5,-0.08997118473052979,0.3132820129394531,23.0,0.06953084468841553,0.2705097198486328,15.0,0.12217366695404053,0.24576187133789062,18.0,0.13547742366790771,0.2132892608642578,15.75,"[472, 543, 567, 531, 433, 529, 565, 546, 461, 621, 733, 657, 557, 537, 615, 591, 539, 660, 617, 577, 633, 590, 556, 499, 425, 480, 446, 425, 479, 538, 505, 491, 530, 475, 477, 474, 473, 479, 504, 570, 545, 540, 560, 542, 493, 459, 467, 549, 584, 568, 563, 590, 555, 448, 462, 546, 447, 558, 513, 504, 496, 490, 533, 514, 496, 495, 461, 492, 483, 462, 504, 519, 496, 495, 506, 502, 520, 464, 467, 558, 571, 575, 519, 454, 534, 551, 617, 624, 524, 555, 505, 455, 516, 514, 609, 571, 454, 448, 525, 549, 563, 494, 501, 540, 468, 520, 606, 576, 451, 473, 568, 518, 570, 631, 584, 532, 479, 536, 602, 553, 519, 610, 570, 511, 526, 594, 593, 461, 549, 593, 581, 494, 473, 475, 559, 510, 518, 578, 576, 504, 454, 546, 559, 510, 536, 497, 605, 562, 478, 579, 612, 632, 481, 490, 502, 514, 498, 488, 538, 491, 492, 572, 480, 445, 451, 479, 559, 496, 640, 582, 504, 627, 708, 618, 481, 559, 770, 966, 834, 624, 1089, 1224, 861, 597, 890, 1369, 1140, 699, 1726, 1999, 1241, 596, 792, 1134, 974, 726, 1522, 1865, 1357, 650, 1196, 1794, 1453, 958, 1384, 1672, 1903, 1402, 2661, 2706, 2736, 2584, 2511, 2413, 4680, 4614, 4363, 2911, 3924, 3930, 3723, 2776, 6781, 7562, 4322, 3519, 4150, 3047, 3509, 2809, 4847, 5759, 3538, 4341, 4300, 3106, 1964, 3228, 4379, 4201, 4011, 4338, 4168, 4898, 2327, 3793, 7422, 6600, 2648, 3799, 4051, 4871, 3075, 3770, 8877, 7966, 1895, 2003, 2579, 3069, 2226, 2180, 4661, 4386, 1885, 1727, 1580, 1597, 1368, 1322, 1904, 2082, 1878, 5021, 4615, 1921, 1820, 3060, 4299, 2652, 2022, 11224, 12705, 6618, 2123, 7203, 12801, 10238, 2599, 14947, 18240, 10231, 2649, 9543, 18658, 16015, 1885, 12504, 14097, 7054, 1510, 7602, 14706, 12056, 3755, 6792, 4337, 1367, 1779, 4101, 5957, 3189, 3596, 4324, 2843, 2548, 1460, 2947, 4102, 2587, 2212, 2640, 2330, 1578, 1180, 1895, 2569, 2268, 1565, 2325, 2209, 1204, 1416, 2002, 2376, 1865, 1140, 2273, 2399, 1347, 1302, 2135, 2374, 1458, 1620, 2352, 1808, 1280, 1130, 1603, 1786, 1277, 2166, 2893, 1944, 1164, 1356, 1431, 1514, 1271, 1920, 2616, 1850, 966, 1608, 1366, 932, 857, 1639, 2300, 2103, 1469, 1530, 1385, 817, 992, 1454, 2165, 2112, 1432, 1074, 1018, 985, 1089, 1822, 2382, 1677, 1049, 1038, 1403, 1450, 979, 3185, 2685, 1307, 1456, 2161, 2644, 1747, 1703, 3422, 2216, 1353, 1967, 2713, 3003, 1650, 2214, 2063, 1566, 1576, 1615, 1811, 2183, 1331, 1362, 1584, 1568, 1078, 923, 1209, 1426, 1114, 949, 1091, 1316, 1098, 837, 865, 1277, 1278, 812, 792, 1015, 963, 922, 789, 1023, 1160, 824, 729, 816, 722, 660, 634, 746, 823, 756, 754, 812, 954, 855, 743, 862, 909, 632, 1040, 1226, 984, 824, 925, 999, 961, 692, 1199, 1174, 777, 819, 885, 871, 850, 905, 1004, 958, 842, 852, 775, 758, 826, 890, 707, 775, 771, 671, 710, 879, 812, 634, 663, 726, 763, 785, 714, 669, 710, 701, 597, 722, 864, 769, 660, 759, 778, 742, 821, 893, 1090, 928, 772, 1109, 1014, 830, 834, 985, 1141, 1011, 720, 1290, 1342, 870, 802, 722, 821, 860, 675, 1039, 1176, 924, 791, 730, 819, 857, 632, 865, 1044, 913, 689, 784, 762, 709, 694, 792, 830, 690, 621, 654, 642, 629, 658, 649, 550, 510, 627, 607, 763, 695, 627, 700, 774, 709, 673, 705, 827, 846, 634, 668, 831, 884, 795, 632, 702, 762, 714, 721, 744, 881, 811, 820, 877, 786, 746, 704, 757, 897, 712, 881, 1031, 958, 810, 716, 714, 690, 616, 773, 906, 797, 795, 766, 810, 759, 764, 721, 658, 787, 852, 691, 709, 780, 666, 597, 607, 954, 827, 655, 1108, 1075, 688, 843, 902, 1104, 741, 1012, 1566, 1274, 766, 766, 1000, 961, 612, 832, 1315, 1259, 763, 871, 1187, 949, 737, 832, 1226, 1303, 794, 1078, 1207, 784, 792, 950, 1237, 1198, 1413, 951, 929, 1320, 1510, 869, 1213, 1786, 1531, 684, 884, 1627, 1721, 894, 1145, 1819, 1054, 630, 834, 1041, 1066, 896, 936, 1223, 819, 566, 724, 736, 608, 636, 801, 908, 680, 608, 745, 737, 561, 501, 693, 729, 668, 798, 767, 707, 644, 657, 840, 750, 642, 848, 785, 706, 673, 772, 1002, 920, 623, 818, 687, 628, 622, 873, 1085, 722, 612, 684, 554, 659, 620, 741, 824, 683, 709, 657, 652, 639, 647, 610, 544, 600, 592, 576, 724, 734, 568, 522, 684, 709, 618, 637, 744, 633, 572, 636, 646, 672, 618, 550, 659, 652, 609, 530, 635, 728, 771, 655, 811, 770, 721, 592, 747, 1022, 1022, 756, 1049, 982, 804, 599, 1327, 1615, 937, 687, 858, 905, 703, 716, 1393, 1493, 747, 663, 752, 771, 695, 915, 1108, 973, 626, 623, 765, 753, 647, 652, 915, 918, 791, 785, 949, 815, 738, 655, 967, 1072, 745, 850, 987, 831, 771, 604, 1087, 1219, 623, 794, 880, 743, 697, 576, 1015, 1094, 770, 672, 889, 807, 712, 599, 923, 1068, 651, 657, 749, 793, 711, 561, 894, 913, 654, 680, 656, 647, 611, 673, 830, 805, 588, 608, 632, 635, 584, 649, 761, 722, 683, 740, 613, 592, 606, 736, 704, 595, 557, 582, 616, 622, 572, 667, 737, 595, 570, 603, 711, 718, 641, 643, 664, 632, 688, 752, 844, 880, 766, 544, 745, 788, 694, 659, 754, 875, 740, 585, 750, 778, 445, 479, 594, 649, 586, 555, 668, 615, 572, 466, 614, 708, 589, 556, 675, 710, 669, 521, 847, 905, 650, 556, 851, 936, 805, 752, 1363, 1381, 810, 630, 1034, 1165, 531, 936, 1173, 961, 620, 715, 905, 813, 555, 536, 543, 529, 501, 564, 553, 497, 843, 557, 873, 982, 648, 580, 691, 910, 1241, 628, 1366, 1525, 913, 657, 1074, 1542, 966, 617, 1167, 1199, 792, 651, 1061, 1342, 566, 505, 564, 627, 612, 514, 634, 695, 522, 464, 651, 647, 575, 455, 494, 601, 488, 526, 550, 517, 505, 517, 476, 432, 511, 597, 553, 502, 547, 532, 573, 498, 445, 508, 563, 437, 378, 443, 516, 444, 426, 456, 464, 466, 399, 450, 495, 452, 416, 410, 493, 542, 459, 449, 554, 537, 379, 501, 571, 450, 344, 471, 574, 521]"
0.11260390281677246,0.2508964240550995,0.29211270809173584,-0.1060420423746109,0.02135223150253296,0.9058127999305725,0.17375637590885162,-0.318462073802948,0.643157958984375,25.0,-0.144511878490448,0.4314422607421875,28.25,-0.13278168439865112,0.4237174987792969,29.75,-0.001746833324432373,0.43358802795410156,23.75,0.3289874196052551,0.3941059112548828,16.5,"[500, 605, 795, 708, 530, 704, 796, 608, 620, 578, 678, 692, 609, 615, 645, 640, 543, 591, 532, 527, 575, 580, 553, 546, 476, 552, 549, 444, 539, 525, 423, 463, 433, 568, 535, 322, 451, 543, 430, 408, 604, 520, 535, 601, 565, 581, 577, 582, 519, 610, 627, 624, 547, 529, 565, 517, 515, 509, 570, 606, 566, 516, 560, 552, 468, 429, 510, 481, 482, 486, 564, 538, 557, 611, 507, 507, 494, 623, 718, 565, 561, 649, 533, 562, 594, 649, 681, 552, 545, 536, 513, 586, 549, 502, 615, 645, 508, 551, 562, 542, 492, 601, 632, 605, 468, 465, 481, 418, 463, 547, 589, 562, 525, 501, 595, 584, 498, 591, 592, 573, 601, 438, 520, 544, 531, 574, 521, 598, 541, 482, 566, 606, 529, 534, 533, 566, 551, 617, 635, 533, 559, 567, 567, 590, 591, 720, 595, 567, 659, 696, 599, 492, 534, 655, 597, 528, 595, 604, 561, 482, 557, 562, 441, 553, 663, 545, 464, 477, 598, 580, 576, 622, 678, 559, 628, 698, 505, 524, 694, 685, 526, 610, 736, 677, 656, 742, 752, 744, 850, 876, 738, 659, 573, 651, 637, 717, 822, 763, 674, 618, 638, 851, 785, 498, 696, 886, 753, 523, 1006, 1335, 1396, 1210, 794, 1755, 2512, 2071, 4270, 2808, 4335, 4839, 3019, 4276, 10111, 10084, 8082, 3940, 7217, 7886, 6192, 5478, 16262, 17626, 7357, 3944, 7014, 5676, 5535, 3530, 13165, 15216, 5335, 4284, 6440, 3791, 3637, 3235, 9723, 10873, 5811, 4768, 7437, 6003, 4130, 6302, 13559, 13481, 7903, 4654, 8294, 7487, 5114, 7305, 15976, 16451, 5752, 3902, 6186, 5425, 3294, 4795, 10584, 11174, 2254, 1669, 2584, 2551, 1607, 2758, 4612, 4208, 2448, 4675, 6186, 4180, 2187, 3362, 3715, 2851, 1805, 7459, 10265, 6358, 1513, 3576, 6965, 6953, 2837, 7284, 9282, 4987, 969, 3147, 7778, 7914, 3113, 8414, 8146, 3139, 2058, 5560, 9056, 6721, 2883, 6889, 5942, 2211, 1936, 4582, 6495, 3919, 2668, 4387, 3392, 1129, 1421, 3079, 3692, 2026, 2794, 3500, 2698, 1814, 994, 2965, 3124, 1908, 2670, 2669, 2970, 2775, 997, 3098, 3144, 1975, 2013, 1714, 3221, 2602, 1012, 2567, 1905, 1742, 1588, 1600, 2505, 1580, 1195, 1767, 959, 1714, 1597, 1175, 1349, 779, 1443, 1669, 1019, 1400, 1427, 1203, 865, 909, 1198, 1305, 747, 928, 1301, 1168, 790, 942, 974, 1008, 1048, 962, 1571, 1759, 1358, 1047, 1171, 1295, 1783, 1707, 2204, 2081, 1551, 1187, 1768, 1882, 2052, 2218, 3080, 2384, 1396, 1609, 2486, 2415, 1438, 2347, 2703, 1678, 1299, 2117, 2311, 1583, 781, 2312, 1457, 742, 1185, 1695, 1472, 681, 1181, 1769, 865, 671, 809, 1111, 1074, 675, 878, 984, 929, 942, 897, 995, 943, 776, 861, 940, 975, 957, 818, 734, 903, 735, 679, 906, 732, 919, 968, 765, 708, 1013, 971, 656, 610, 857, 975, 830, 602, 698, 768, 727, 880, 1079, 1101, 915, 663, 684, 738, 715, 736, 669, 709, 718, 549, 567, 789, 844, 639, 829, 914, 815, 786, 1043, 1339, 1134, 683, 879, 958, 827, 827, 924, 1108, 1090, 733, 761, 824, 744, 729, 785, 775, 780, 660, 713, 766, 582, 519, 646, 714, 687, 690, 572, 655, 669, 603, 588, 635, 772, 666, 707, 726, 723, 683, 700, 755, 680, 552, 686, 696, 668, 635, 720, 804, 628, 650, 733, 764, 800, 750, 749, 746, 696, 540, 728, 747, 703, 720, 754, 846, 810, 709, 717, 842, 889, 883, 893, 925, 1022, 789, 641, 882, 1011, 863, 1043, 1158, 1026, 793, 605, 732, 824, 759, 906, 905, 863, 701, 648, 737, 775, 819, 723, 746, 789, 737, 765, 707, 685, 724, 724, 717, 747, 663, 714, 754, 573, 668, 715, 759, 797, 614, 757, 866, 663, 564, 776, 797, 726, 653, 711, 838, 768, 617, 640, 799, 818, 739, 708, 795, 764, 773, 709, 742, 851, 712, 639, 700, 749, 691, 657, 752, 793, 649, 694, 727, 694, 677, 693, 791, 725, 716, 799, 782, 780, 757, 770, 823, 814, 1202, 882, 840, 1220, 1304, 932, 990, 1371, 1428, 752, 902, 1364, 1369, 811, 1008, 1641, 775, 608, 848, 1003, 798, 590, 859, 1002, 560, 583, 744, 778, 674, 673, 699, 608, 718, 746, 759, 736, 672, 655, 667, 710, 808, 867, 796, 736, 707, 768, 838, 847, 699, 766, 617, 597, 633, 690, 746, 687, 636, 676, 620, 609, 586, 512, 620, 701, 622, 674, 674, 621, 619, 642, 636, 653, 590, 581, 688, 721, 632, 533, 631, 653, 552, 577, 669, 632, 491, 535, 596, 619, 536, 514, 687, 623, 500, 605, 689, 582, 612, 566, 773, 776, 620, 663, 675, 607, 660, 553, 842, 802, 680, 735, 815, 844, 763, 660, 943, 874, 606, 747, 1176, 1200, 853, 674, 863, 831, 727, 755, 804, 933, 798, 729, 834, 690, 740, 1187, 1239, 911, 741, 740, 721, 619, 681, 1013, 1170, 990, 726, 590, 604, 615, 643, 656, 972, 1022, 602, 629, 583, 630, 709, 544, 820, 861, 615, 624, 681, 710, 612, 630, 734, 651, 710, 565, 609, 774, 689, 686, 689, 650, 681, 652, 639, 668, 732, 717, 678, 716, 573, 641, 701, 620, 567, 704, 735, 682, 624, 651, 696, 634, 563, 661, 754, 719, 547, 592, 601, 582, 529, 617, 803, 738, 633, 604, 540, 478, 547, 618, 699, 673, 523, 614, 561, 541, 557, 573, 642, 549, 695, 654, 635, 603, 599, 651, 667, 659, 498, 540, 671, 673, 507, 618, 736, 643, 548, 591, 749, 691, 524, 607, 578, 605, 592, 587, 641, 562, 554, 634, 543, 549, 769, 539, 840, 897, 664, 681, 658, 836, 819, 624, 1208, 1275, 776, 759, 888, 971, 633, 596, 978, 951, 648, 702, 753, 784, 534, 530, 542, 588, 539, 551, 577, 545, 549, 564, 572, 597, 541, 554, 706, 619, 782, 646, 793, 656, 666, 589, 955, 1098, 834, 574, 913, 840, 671, 576, 945, 1223, 421, 510, 543, 461, 453, 459, 602, 580, 454, 485, 397, 407, 425, 459, 494, 418, 407, 576, 604, 434, 506, 560, 577, 456, 436, 528, 520, 476, 476, 578, 639, 526, 396, 396, 491, 481, 380, 487, 614, 546, 473, 440, 462, 508, 491, 443, 459, 492, 467, 455, 539, 489, 392, 459, 507, 546, 493, 457, 410, 441, 378, 336, 407, 436]"
0.1578262746334076,0.3137003183364868,0.29188334941864014,0.06367125362157822,0.08613480627536774,0.743696928024292,0.3885139524936676,-0.7893730998039246,1.0904788970947266,19.25,-0.21416443586349487,0.5069732666015625,22.25,-0.20429390668869019,0.4985332489013672,18.75,-0.17868775129318237,0.48236846923828125,22.75,0.04604560136795044,0.4566192626953125,22.75,"[651, 653, 692, 741, 687, 747, 687, 649, 545, 640, 710, 666, 667, 768, 682, 518, 512, 600, 666, 576, 620, 699, 558, 438, 517, 551, 528, 444, 364, 491, 477, 414, 532, 525, 446, 482, 525, 512, 476, 468, 484, 482, 510, 475, 508, 552, 557, 514, 498, 531, 555, 504, 509, 541, 599, 534, 527, 572, 520, 498, 603, 662, 585, 521, 557, 503, 483, 490, 484, 510, 516, 505, 498, 421, 468, 493, 481, 424, 457, 520, 563, 493, 449, 479, 543, 488, 537, 638, 563, 505, 439, 428, 444, 467, 526, 548, 421, 468, 473, 467, 405, 472, 549, 472, 463, 522, 502, 568, 591, 564, 579, 479, 529, 581, 475, 533, 555, 528, 504, 444, 562, 519, 480, 621, 618, 506, 499, 504, 485, 450, 416, 452, 507, 479, 532, 537, 536, 562, 475, 466, 547, 575, 582, 500, 571, 519, 500, 566, 565, 585, 573, 549, 613, 511, 544, 598, 581, 575, 612, 623, 655, 553, 642, 672, 620, 546, 618, 760, 832, 673, 949, 1216, 958, 589, 997, 1131, 643, 726, 1257, 1532, 941, 688, 1263, 1126, 672, 790, 682, 1094, 1098, 750, 777, 681, 619, 661, 613, 814, 983, 748, 583, 546, 665, 926, 993, 607, 724, 1008, 843, 591, 933, 1108, 1019, 721, 777, 954, 797, 659, 1074, 1199, 1297, 998, 1125, 1144, 1652, 1785, 3459, 1853, 3278, 3850, 3391, 2524, 5664, 6457, 5860, 3585, 4932, 5664, 4211, 3788, 8230, 9590, 6293, 4020, 5502, 4845, 3868, 3215, 8707, 10242, 3232, 2926, 3582, 3537, 2788, 2398, 6861, 6929, 4577, 7570, 8961, 5674, 3348, 7290, 16345, 14958, 6495, 10916, 14107, 8087, 5324, 8682, 21610, 20682, 3934, 12801, 13238, 7356, 2701, 7631, 14496, 10805, 7905, 18770, 18671, 8535, 3912, 8742, 12479, 7983, 7945, 19177, 17808, 6337, 5427, 9050, 12831, 7995, 9167, 11171, 8488, 7160, 6720, 6929, 8030, 9688, 8122, 5050, 12167, 10892, 5353, 2715, 11152, 14529, 2821, 6880, 10854, 7645, 1848, 4462, 9678, 9726, 1824, 5247, 6350, 3664, 1156, 4088, 5359, 3858, 1741, 2326, 2323, 1415, 1156, 2337, 2236, 1227, 1563, 1677, 931, 946, 969, 1588, 1593, 747, 1353, 1414, 1002, 873, 934, 1403, 1178, 731, 1016, 1020, 1034, 886, 812, 858, 928, 992, 885, 1138, 1438, 1135, 859, 1153, 1150, 947, 949, 1032, 1061, 747, 816, 1131, 911, 747, 819, 921, 953, 788, 621, 632, 677, 732, 804, 1201, 1210, 885, 675, 772, 864, 747, 1110, 1227, 1051, 832, 714, 757, 743, 904, 1832, 1083, 736, 1251, 1387, 941, 1055, 1792, 2174, 1304, 858, 1431, 1554, 886, 1257, 2201, 1912, 1414, 1056, 1383, 1322, 722, 1121, 1787, 1647, 1234, 780, 1162, 1094, 1064, 757, 1069, 1151, 985, 669, 818, 810, 1157, 1000, 617, 720, 939, 836, 763, 790, 908, 902, 701, 639, 603, 693, 791, 696, 770, 874, 782, 605, 720, 804, 612, 590, 849, 940, 808, 796, 960, 852, 662, 665, 987, 1171, 939, 856, 827, 856, 810, 692, 890, 882, 750, 686, 768, 1046, 887, 753, 764, 700, 805, 616, 641, 789, 727, 702, 710, 709, 722, 624, 572, 657, 669, 684, 616, 735, 800, 827, 773, 876, 886, 783, 670, 797, 873, 797, 936, 990, 775, 660, 652, 734, 769, 769, 1098, 1044, 798, 638, 759, 915, 702, 698, 1037, 937, 702, 585, 900, 1080, 758, 777, 951, 736, 617, 684, 972, 1020, 747, 845, 971, 836, 725, 655, 886, 919, 738, 779, 764, 694, 697, 687, 664, 697, 681, 861, 703, 787, 897, 802, 638, 862, 985, 801, 620, 739, 714, 758, 730, 716, 845, 719, 536, 619, 611, 650, 708, 582, 744, 659, 620, 616, 590, 549, 631, 560, 602, 610, 613, 630, 677, 640, 677, 674, 627, 675, 667, 659, 631, 654, 752, 824, 839, 590, 642, 614, 600, 613, 692, 847, 825, 605, 571, 712, 710, 639, 580, 822, 871, 624, 609, 750, 690, 629, 640, 822, 887, 676, 666, 774, 799, 657, 609, 799, 853, 717, 754, 933, 843, 654, 673, 856, 859, 914, 729, 850, 938, 881, 780, 920, 1077, 1002, 793, 775, 995, 1072, 703, 749, 1018, 779, 672, 708, 811, 719, 630, 704, 737, 656, 645, 670, 719, 682, 654, 614, 600, 617, 614, 669, 717, 626, 677, 667, 606, 666, 591, 594, 645, 573, 586, 648, 677, 719, 703, 648, 687, 665, 680, 710, 752, 607, 671, 723, 572, 516, 699, 722, 643, 546, 638, 622, 556, 572, 627, 627, 488, 496, 527, 560, 537, 560, 576, 626, 567, 552, 478, 583, 547, 473, 583, 757, 767, 533, 511, 612, 625, 506, 489, 632, 662, 568, 649, 661, 572, 516, 505, 678, 655, 624, 688, 856, 734, 546, 584, 848, 921, 818, 629, 972, 935, 715, 800, 1197, 1258, 684, 618, 832, 788, 656, 750, 1084, 1110, 595, 649, 853, 781, 585, 673, 853, 784, 619, 693, 952, 909, 542, 750, 1009, 866, 674, 610, 1056, 1108, 726, 696, 992, 950, 718, 727, 1128, 1108, 652, 734, 1050, 986, 688, 808, 897, 830, 617, 699, 797, 804, 703, 574, 624, 683, 580, 588, 777, 828, 626, 641, 649, 586, 517, 680, 774, 694, 613, 720, 648, 511, 630, 669, 647, 605, 654, 682, 817, 687, 591, 683, 850, 821, 742, 758, 754, 621, 573, 602, 678, 701, 752, 662, 686, 688, 648, 609, 627, 762, 724, 548, 669, 715, 670, 546, 610, 720, 636, 568, 657, 677, 648, 581, 676, 720, 583, 585, 577, 552, 610, 693, 719, 605, 604, 657, 548, 565, 611, 622, 692, 595, 607, 702, 581, 561, 606, 661, 698, 580, 654, 723, 897, 870, 734, 651, 755, 812, 777, 878, 1337, 1282, 885, 685, 1178, 1291, 703, 743, 945, 889, 679, 530, 937, 1008, 596, 525, 466, 549, 528, 438, 569, 634, 525, 550, 684, 700, 554, 561, 694, 656, 577, 527, 773, 865, 673, 628, 755, 726, 520, 485, 542, 613, 621, 575, 630, 634, 471, 503, 618, 669, 577, 494, 541, 544, 459, 733, 810, 659, 488, 538, 589, 475, 371, 655, 830, 693, 475, 459, 525, 493, 451, 535, 674, 542, 450, 495, 607, 641, 469, 445, 445, 406, 389, 472, 481, 468, 490, 525, 437, 370, 386, 464, 487, 425, 490, 422, 474, 560, 462, 348, 442, 483, 491, 423, 484, 512, 450, 457, 453, 459]"
0.2189709097146988,0.25695621967315674,0.28033944964408875,0.24053803086280823,-0.08697329461574554,0.538400411605835,0.5673047304153442,-0.2827107906341553,0.6727695465087891,19.0,-0.15053153038024902,0.4431724548339844,27.25,-0.1386582851409912,0.4767894744873047,27.25,0.13900399208068848,0.4923820495605469,19.5,0.1806318759918213,0.6321430206298828,15.5,"[430, 593, 644, 611, 643, 611, 645, 595, 500, 624, 635, 562, 601, 692, 627, 516, 479, 589, 657, 578, 591, 689, 589, 464, 481, 534, 616, 525, 516, 569, 533, 477, 522, 584, 536, 515, 456, 446, 469, 452, 399, 411, 500, 528, 466, 429, 488, 438, 461, 473, 455, 489, 505, 533, 474, 462, 485, 428, 545, 616, 529, 558, 532, 512, 425, 457, 533, 552, 584, 526, 473, 463, 452, 589, 607, 523, 639, 620, 494, 500, 571, 606, 516, 531, 591, 525, 502, 450, 527, 541, 527, 581, 584, 508, 482, 444, 511, 565, 544, 516, 508, 536, 549, 479, 550, 542, 523, 517, 591, 603, 631, 613, 548, 558, 457, 523, 500, 511, 569, 535, 592, 575, 570, 566, 592, 530, 503, 579, 474, 527, 621, 591, 573, 559, 508, 537, 565, 505, 539, 658, 646, 530, 458, 537, 544, 517, 514, 524, 554, 546, 498, 499, 576, 577, 546, 567, 609, 562, 455, 542, 525, 554, 499, 604, 565, 540, 536, 496, 558, 591, 600, 770, 709, 624, 711, 625, 659, 591, 733, 888, 814, 600, 675, 734, 603, 627, 614, 589, 653, 709, 671, 580, 436, 444, 504, 546, 470, 505, 540, 500, 544, 529, 595, 595, 596, 655, 607, 568, 544, 598, 635, 598, 554, 653, 677, 539, 525, 639, 693, 693, 583, 733, 768, 612, 1636, 1818, 2344, 2654, 1439, 2239, 5090, 4704, 5740, 3221, 5409, 7001, 4881, 4132, 12365, 12960, 6571, 2624, 5516, 7168, 5659, 3079, 11399, 12989, 2615, 775, 2673, 3405, 2818, 817, 3224, 4361, 5848, 3752, 4108, 3998, 3119, 6393, 11988, 11592, 12148, 7660, 12821, 8241, 6942, 9977, 24417, 25946, 10050, 6361, 12704, 8782, 5670, 6733, 19533, 21811, 4567, 5239, 8959, 5959, 2577, 4545, 11886, 12431, 1455, 4924, 6144, 3227, 705, 4467, 8469, 7290, 1395, 3383, 3022, 1847, 891, 3636, 4910, 3018, 1771, 2508, 2339, 1677, 1148, 3191, 3416, 1830, 1509, 2206, 2877, 1832, 1030, 2726, 2728, 1754, 1284, 1640, 2433, 1549, 1018, 2077, 1531, 1146, 1099, 961, 1069, 826, 824, 1176, 960, 1017, 1189, 1294, 1127, 814, 860, 1584, 1407, 678, 1147, 996, 1346, 1007, 829, 1508, 1149, 945, 912, 970, 1076, 787, 765, 1156, 933, 836, 774, 860, 766, 662, 660, 757, 636, 716, 628, 712, 835, 793, 672, 626, 636, 711, 747, 894, 905, 815, 701, 744, 742, 728, 658, 882, 811, 703, 698, 618, 622, 591, 658, 693, 508, 599, 700, 589, 518, 524, 992, 1118, 944, 725, 699, 763, 758, 710, 1307, 1630, 1270, 852, 994, 1281, 1192, 766, 1237, 1286, 868, 800, 886, 1019, 900, 771, 920, 870, 644, 658, 673, 841, 824, 676, 749, 626, 618, 645, 556, 617, 645, 709, 786, 601, 673, 779, 640, 515, 593, 779, 686, 609, 702, 745, 643, 642, 812, 815, 611, 508, 624, 602, 617, 576, 770, 841, 635, 630, 567, 472, 602, 535, 702, 802, 625, 627, 510, 552, 647, 565, 515, 545, 552, 504, 530, 586, 576, 525, 539, 595, 665, 542, 520, 636, 631, 525, 569, 623, 569, 682, 666, 684, 714, 672, 615, 561, 576, 577, 640, 608, 617, 601, 649, 601, 532, 605, 577, 505, 543, 563, 567, 537, 547, 552, 586, 594, 538, 573, 598, 619, 587, 548, 541, 594, 627, 600, 570, 542, 616, 560, 553, 614, 609, 612, 613, 592, 674, 659, 625, 627, 649, 697, 655, 606, 741, 685, 638, 586, 608, 740, 628, 613, 707, 607, 543, 520, 550, 653, 580, 628, 642, 637, 637, 610, 577, 499, 668, 736, 595, 695, 568, 566, 597, 513, 621, 603, 626, 681, 579, 519, 622, 606, 653, 626, 597, 569, 596, 628, 638, 566, 589, 679, 576, 543, 560, 573, 608, 569, 633, 670, 558, 500, 504, 571, 567, 473, 595, 617, 654, 624, 615, 615, 640, 658, 619, 600, 627, 577, 577, 649, 693, 673, 594, 604, 601, 592, 653, 676, 673, 579, 621, 633, 556, 588, 613, 556, 585, 526, 566, 595, 725, 795, 773, 641, 618, 755, 776, 724, 790, 737, 802, 786, 755, 839, 854, 775, 559, 615, 687, 630, 634, 641, 659, 587, 541, 536, 644, 635, 541, 564, 588, 607, 643, 479, 680, 685, 626, 613, 557, 642, 552, 495, 639, 656, 695, 632, 649, 717, 617, 606, 654, 719, 699, 697, 712, 697, 607, 590, 541, 613, 598, 594, 539, 548, 543, 553, 550, 576, 555, 534, 592, 620, 593, 504, 549, 581, 523, 589, 626, 619, 518, 628, 690, 537, 477, 594, 701, 638, 441, 540, 649, 558, 517, 590, 637, 565, 485, 609, 711, 631, 509, 667, 736, 598, 461, 533, 616, 585, 490, 535, 639, 563, 548, 537, 557, 554, 643, 605, 575, 618, 524, 531, 486, 527, 552, 580, 564, 499, 661, 571, 659, 630, 553, 574, 688, 762, 650, 580, 669, 706, 600, 553, 686, 740, 618, 587, 741, 756, 657, 687, 691, 713, 569, 544, 739, 782, 610, 692, 634, 625, 703, 574, 757, 837, 655, 587, 626, 724, 556, 573, 860, 852, 505, 467, 570, 666, 517, 598, 771, 637, 449, 611, 656, 642, 631, 583, 621, 552, 521, 644, 632, 598, 671, 689, 663, 634, 596, 587, 554, 610, 627, 626, 670, 687, 568, 541, 643, 657, 641, 597, 715, 767, 625, 609, 664, 680, 568, 548, 682, 719, 572, 638, 730, 706, 610, 546, 613, 688, 665, 658, 709, 659, 525, 441, 593, 605, 530, 545, 593, 549, 665, 669, 653, 615, 607, 686, 631, 607, 599, 591, 673, 611, 518, 566, 638, 646, 578, 549, 546, 536, 543, 581, 580, 538, 527, 487, 574, 547, 522, 598, 620, 552, 612, 555, 541, 575, 548, 477, 556, 595, 573, 494, 525, 551, 541, 484, 485, 587, 574, 617, 529, 473, 536, 577, 515, 513, 537, 569, 479, 434, 535, 549, 458, 462, 465, 445, 471, 465, 562, 576, 536, 513, 465, 439, 379, 402, 542, 471, 437, 475, 410, 427, 458, 540, 484, 396, 462, 484, 407, 469, 496, 492, 432, 391, 393, 428, 490, 425, 386, 409, 422, 399, 373, 452, 392, 401, 388, 327, 386, 395, 367, 374, 412, 432, 436, 416, 391, 416, 422, 443, 427, 406, 439, 447, 409, 428, 423, 436, 385, 392, 409, 394, 348, 467, 467, 411]"
0.2932807505130768,-0.030065983533859253,0.13185980916023254,0.24962118268013,-0.6394953727722168,-0.12454059720039368,0.20072892308235168,-0.08471149206161499,0.3875255584716797,16.25,-0.02005237340927124,0.44074058532714844,22.0,0.023578226566314697,0.37479400634765625,28.25,0.0418887734413147,0.341033935546875,28.0,0.10354381799697876,0.15392303466796875,20.25,"[577, 621, 622, 541, 529, 539, 624, 620, 549, 600, 533, 499, 508, 529, 552, 567, 631, 575, 562, 511, 552, 643, 516, 575, 603, 475, 572, 617, 630, 604, 458, 521, 539, 444, 500, 499, 507, 481, 429, 497, 609, 492, 534, 543, 536, 556, 485, 583, 535, 414, 495, 535, 501, 475, 485, 570, 496, 539, 514, 459, 502, 565, 553, 493, 536, 559, 484, 442, 562, 580, 469, 426, 497, 531, 545, 580, 547, 519, 486, 500, 497, 525, 561, 615, 647, 564, 452, 463, 545, 620, 545, 618, 645, 574, 530, 529, 558, 607, 502, 523, 477, 472, 517, 490, 512, 590, 532, 396, 445, 503, 492, 439, 569, 593, 582, 544, 541, 512, 530, 559, 596, 631, 617, 548, 635, 527, 600, 671, 577, 583, 540, 637, 642, 626, 567, 547, 560, 561, 538, 595, 609, 631, 535, 499, 541, 529, 631, 585, 582, 740, 642, 539, 616, 558, 661, 612, 581, 625, 605, 604, 580, 527, 523, 521, 535, 572, 572, 555, 636, 618, 560, 526, 534, 555, 482, 598, 509, 489, 517, 530, 466, 548, 610, 578, 514, 547, 588, 536, 564, 597, 608, 542, 537, 622, 660, 618, 599, 695, 670, 508, 576, 664, 683, 627, 651, 696, 658, 578, 651, 649, 628, 592, 643, 682, 634, 647, 597, 650, 642, 529, 651, 633, 610, 599, 649, 856, 948, 933, 839, 775, 1357, 1264, 1397, 865, 1539, 2171, 1472, 1058, 2934, 3006, 1865, 1494, 2735, 2901, 1756, 1757, 3619, 3685, 2578, 3227, 4304, 3336, 1971, 4076, 7517, 6845, 5301, 6181, 7827, 5402, 3616, 7835, 15714, 14579, 5813, 7157, 9512, 6001, 3848, 8348, 17777, 16742, 3341, 4409, 6072, 3372, 2005, 4781, 10502, 10002, 1275, 2554, 3318, 1801, 971, 2264, 4912, 4593, 683, 1573, 1787, 1073, 647, 1268, 2169, 1822, 1122, 1475, 940, 462, 944, 1648, 1715, 880, 1371, 1541, 1550, 818, 1191, 1627, 1679, 1495, 850, 965, 1026, 1219, 1246, 815, 1243, 1328, 1344, 1940, 1474, 1431, 993, 1251, 1890, 1116, 1305, 1803, 1440, 980, 740, 960, 1259, 835, 743, 883, 841, 694, 669, 631, 602, 642, 653, 705, 648, 573, 712, 873, 869, 720, 683, 709, 674, 611, 675, 856, 817, 640, 662, 658, 729, 772, 586, 670, 740, 622, 622, 630, 692, 788, 600, 661, 809, 697, 616, 566, 534, 616, 650, 561, 622, 621, 608, 671, 556, 577, 660, 572, 543, 583, 659, 701, 657, 623, 675, 674, 583, 588, 642, 718, 675, 698, 714, 713, 693, 609, 589, 773, 892, 793, 727, 824, 880, 737, 732, 852, 802, 644, 753, 953, 892, 668, 694, 754, 558, 604, 621, 629, 683, 664, 599, 594, 597, 692, 696, 591, 705, 712, 531, 596, 587, 694, 699, 638, 621, 641, 684, 648, 531, 649, 721, 582, 543, 658, 796, 667, 498, 573, 679, 606, 536, 658, 715, 661, 525, 485, 573, 671, 683, 655, 633, 660, 686, 561, 541, 585, 649, 628, 647, 622, 710, 638, 577, 545, 603, 707, 587, 630, 682, 561, 525, 650, 666, 651, 539, 525, 549, 578, 559, 537, 559, 573, 591, 556, 497, 563, 658, 603, 469, 484, 515, 612, 643, 577, 628, 665, 564, 509, 569, 656, 683, 689, 659, 598, 595, 629, 622, 613, 607, 685, 704, 560, 676, 697, 548, 487, 486, 530, 600, 630, 511, 541, 616, 553, 510, 577, 667, 640, 581, 654, 648, 543, 566, 665, 725, 676, 731, 730, 647, 488, 526, 636, 638, 589, 642, 713, 680, 525, 591, 728, 687, 651, 770, 843, 714, 619, 568, 629, 642, 761, 829, 788, 630, 567, 737, 602, 601, 639, 648, 724, 585, 580, 644, 530, 648, 645, 585, 623, 610, 637, 564, 520, 622, 611, 630, 588, 570, 534, 467, 516, 599, 579, 599, 574, 608, 626, 495, 553, 575, 618, 686, 628, 592, 618, 522, 543, 577, 610, 630, 620, 676, 649, 628, 644, 643, 589, 660, 735, 606, 585, 630, 662, 593, 577, 728, 729, 679, 555, 690, 911, 840, 601, 762, 809, 663, 597, 649, 945, 923, 684, 733, 791, 685, 647, 587, 690, 696, 627, 663, 699, 610, 619, 694, 718, 694, 649, 555, 624, 580, 645, 567, 625, 689, 581, 494, 563, 586, 518, 568, 547, 580, 565, 557, 644, 528, 610, 652, 572, 532, 551, 672, 647, 539, 613, 644, 713, 668, 587, 681, 644, 545, 513, 547, 733, 619, 522, 602, 601, 554, 555, 607, 571, 554, 598, 623, 624, 571, 564, 582, 511, 592, 597, 557, 572, 549, 673, 613, 544, 595, 626, 587, 540, 491, 631, 553, 515, 512, 534, 509, 481, 589, 523, 528, 610, 634, 574, 602, 677, 723, 603, 612, 638, 546, 496, 708, 815, 731, 616, 589, 622, 552, 514, 604, 739, 617, 584, 639, 689, 598, 618, 615, 592, 594, 616, 603, 718, 689, 562, 713, 642, 594, 601, 492, 594, 654, 523, 651, 612, 517, 547, 570, 619, 551, 521, 666, 630, 644, 550, 484, 592, 565, 543, 681, 710, 713, 538, 601, 780, 751, 530, 663, 750, 538, 489, 520, 595, 585, 541, 558, 580, 442, 561, 535, 419, 508, 600, 554, 443, 525, 583, 507, 473, 627, 675, 586, 546, 512, 484, 483, 565, 668, 622, 536, 577, 530, 511, 485, 517, 613, 636, 540, 540, 467, 572, 616, 556, 555, 642, 613, 513, 483, 585, 546, 531, 554, 509, 537, 510, 553, 578, 587, 534, 520, 612, 601, 543, 542, 528, 557, 530, 541, 642, 574, 553, 509, 595, 661, 534, 456, 574, 529, 569, 637, 671, 688, 571, 480, 576, 564, 608, 635, 607, 646, 682, 591, 564, 614, 595, 567, 481, 519, 591, 516, 544, 520, 516, 535, 481, 527, 461, 538, 582, 528, 569, 523, 550, 538, 537, 500, 524, 635, 554, 508, 554, 575, 591, 547, 488, 442, 458, 486, 472, 610, 602, 500, 513, 479, 574, 418, 429, 532, 483, 429, 398, 417, 475, 496, 480, 413, 365, 391, 441, 441, 470, 393, 409, 443, 420, 431, 438, 405, 407, 415, 444, 444, 434, 433, 457, 392, 409, 478, 385, 360, 389, 406, 371, 367, 484, 408, 358, 339, 356, 377, 380, 394, 415, 371, 356, 399, 405, 423, 368, 362, 432, 450, 482, 495, 384, 414, 423, 404, 444]"
0.2215990424156189,-0.2171616554260254,0.05565619468688965,0.013072878122329712,-0.9104042053222656,-0.3428879380226135,-0.16113480925559998,-0.18412166833877563,0.4387378692626953,17.0,-0.17568165063858032,0.6239891052246094,23.75,-0.15493923425674438,0.3863811492919922,15.75,-0.00030094385147094727,0.48580169677734375,28.25,0.06693309545516968,0.3046989440917969,26.0,"[761, 743, 742, 630, 603, 627, 745, 739, 600, 687, 668, 664, 623, 670, 773, 718, 567, 614, 666, 657, 701, 724, 671, 570, 527, 593, 614, 546, 564, 589, 534, 500, 528, 553, 484, 445, 555, 577, 466, 415, 502, 556, 517, 418, 546, 686, 636, 452, 513, 486, 540, 548, 523, 577, 536, 526, 601, 542, 456, 543, 557, 534, 478, 506, 541, 580, 495, 455, 513, 519, 521, 479, 506, 529, 524, 533, 566, 537, 471, 488, 487, 511, 487, 537, 551, 442, 469, 525, 567, 557, 485, 530, 585, 529, 541, 560, 537, 559, 511, 556, 554, 560, 493, 488, 572, 561, 507, 529, 571, 543, 558, 549, 572, 607, 525, 544, 530, 504, 573, 568, 521, 536, 559, 513, 600, 586, 459, 558, 542, 507, 608, 557, 535, 542, 574, 546, 580, 571, 629, 555, 580, 620, 598, 546, 582, 502, 623, 685, 581, 531, 549, 613, 609, 561, 524, 573, 578, 520, 577, 578, 726, 592, 544, 649, 622, 472, 607, 729, 783, 547, 621, 910, 884, 505, 670, 933, 656, 513, 785, 925, 767, 568, 661, 746, 603, 663, 727, 699, 648, 721, 597, 532, 628, 548, 600, 644, 601, 569, 599, 651, 518, 532, 602, 632, 552, 534, 591, 525, 530, 568, 611, 560, 590, 571, 587, 534, 630, 695, 668, 588, 676, 875, 836, 671, 1023, 970, 1401, 1472, 747, 1436, 2886, 2639, 2077, 1124, 1946, 2585, 2038, 1658, 4492, 4711, 1934, 1184, 1886, 1742, 1718, 1001, 3459, 4029, 2557, 3811, 5338, 4776, 2325, 4222, 9536, 8750, 1734, 6578, 5449, 7397, 2553, 9094, 16427, 12518, 4976, 7393, 8126, 6756, 3645, 9293, 18363, 16058, 4393, 6948, 9138, 4163, 2774, 6277, 15402, 14916, 1928, 7650, 9076, 4284, 1303, 6587, 13477, 11743, 649, 5133, 5713, 2750, 718, 4044, 7590, 6159, 1109, 2836, 3919, 2367, 861, 1788, 4086, 3988, 1762, 1228, 2644, 2162, 1126, 844, 2085, 2958, 1142, 946, 1494, 1246, 976, 1320, 1577, 1603, 702, 1105, 1714, 1116, 834, 1562, 1171, 819, 979, 1076, 1660, 1177, 720, 1414, 1097, 932, 1119, 1016, 1372, 1124, 662, 1307, 1076, 818, 959, 910, 1226, 1042, 642, 1152, 1085, 860, 812, 982, 1212, 991, 666, 899, 977, 846, 604, 815, 853, 718, 613, 786, 777, 606, 692, 745, 679, 650, 553, 794, 838, 618, 664, 683, 592, 609, 570, 687, 715, 623, 608, 586, 495, 529, 598, 624, 629, 574, 618, 738, 708, 543, 578, 729, 849, 708, 644, 620, 680, 626, 651, 606, 687, 732, 819, 696, 704, 655, 765, 795, 601, 755, 811, 734, 626, 697, 767, 776, 625, 636, 716, 779, 795, 726, 585, 749, 691, 578, 598, 669, 723, 662, 613, 583, 637, 578, 838, 775, 759, 816, 786, 683, 630, 786, 919, 768, 655, 708, 736, 712, 678, 840, 692, 542, 609, 780, 760, 618, 635, 767, 595, 592, 525, 566, 664, 794, 845, 715, 738, 651, 539, 573, 669, 786, 774, 693, 723, 603, 558, 544, 588, 641, 590, 600, 628, 683, 678, 658, 611, 594, 631, 601, 678, 629, 643, 663, 570, 572, 595, 614, 526, 545, 611, 552, 447, 500, 573, 597, 560, 584, 537, 594, 606, 564, 568, 512, 582, 675, 668, 614, 576, 514, 526, 604, 484, 621, 639, 630, 563, 481, 639, 635, 539, 570, 655, 672, 626, 507, 639, 741, 559, 588, 613, 586, 573, 610, 674, 702, 641, 667, 678, 632, 651, 699, 712, 633, 625, 674, 643, 651, 691, 691, 708, 613, 680, 679, 580, 640, 659, 672, 608, 613, 670, 650, 582, 647, 627, 681, 716, 654, 659, 557, 527, 696, 643, 582, 614, 702, 588, 520, 542, 626, 598, 530, 550, 605, 489, 526, 611, 628, 563, 557, 667, 607, 594, 601, 554, 575, 548, 569, 611, 557, 572, 630, 664, 636, 520, 643, 785, 614, 677, 588, 607, 635, 591, 583, 698, 726, 612, 610, 595, 579, 554, 571, 638, 560, 558, 563, 517, 498, 578, 515, 444, 483, 607, 593, 498, 482, 532, 643, 551, 498, 695, 619, 511, 482, 505, 725, 769, 663, 647, 662, 593, 552, 563, 630, 701, 634, 652, 730, 685, 529, 609, 620, 610, 645, 618, 624, 614, 560, 529, 635, 619, 665, 604, 557, 540, 511, 530, 549, 531, 590, 502, 570, 629, 600, 571, 506, 545, 580, 636, 501, 536, 627, 655, 583, 539, 646, 739, 582, 571, 677, 662, 668, 516, 687, 575, 483, 441, 564, 631, 564, 582, 619, 579, 572, 545, 657, 614, 571, 587, 616, 660, 552, 450, 625, 602, 534, 532, 607, 602, 588, 600, 607, 661, 620, 696, 703, 614, 567, 544, 570, 607, 566, 611, 630, 617, 644, 593, 579, 553, 587, 609, 561, 595, 638, 626, 606, 681, 621, 624, 610, 541, 596, 686, 645, 650, 613, 659, 681, 599, 590, 589, 567, 549, 574, 562, 576, 611, 662, 535, 510, 517, 553, 582, 572, 602, 574, 578, 574, 620, 565, 748, 723, 667, 532, 569, 640, 652, 585, 648, 729, 658, 613, 683, 697, 662, 650, 701, 669, 564, 551, 685, 660, 604, 604, 665, 651, 594, 535, 564, 634, 645, 546, 607, 684, 608, 586, 534, 508, 565, 551, 657, 669, 649, 654, 610, 619, 619, 592, 691, 701, 652, 736, 622, 533, 600, 661, 664, 627, 589, 565, 509, 502, 523, 568, 571, 573, 645, 548, 525, 617, 637, 657, 529, 593, 577, 510, 552, 559, 544, 594, 571, 571, 562, 484, 475, 526, 498, 546, 569, 558, 478, 498, 503, 444, 462, 535, 561, 502, 592, 635, 654, 568, 544, 571, 592, 615, 664, 497, 611, 624, 625, 600, 640, 741, 581, 516, 543, 610, 621, 568, 528, 615, 563, 521, 526, 608, 598, 490, 468, 551, 531, 558, 602, 589, 543, 572, 565, 543, 440, 500, 570, 569, 516, 506, 567, 493, 496, 560, 606, 631, 593, 567, 577, 519, 484, 552, 597, 514, 529, 507, 497, 490, 491, 531, 522, 452, 505, 506, 444, 483, 487, 414, 430, 419, 460, 470, 415, 438, 353, 362, 431, 435, 365, 389, 488, 447, 385, 379, 389, 380, 346, 409, 427, 403, 457, 421, 475, 411, 392, 490, 423, 420, 435, 414, 501, 418, 301, 345, 372, 444, 368, 339, 394, 394, 312, 321, 383, 438]"
0.1721271425485611,-0.29775527119636536,0.05691295862197876,-0.11224664747714996,-0.8669609427452087,-0.2606850862503052,-0.28670066595077515,-0.17452603578567505,0.3712177276611328,18.25,-0.021890461444854736,0.40955543518066406,21.75,0.006719768047332764,0.2549171447753906,15.5,0.0389062762260437,0.30040740966796875,16.5,0.2646409869194031,0.16679763793945312,19.25,"[631, 559, 561, 632, 665, 628, 557, 560, 775, 653, 527, 661, 757, 711, 554, 626, 619, 535, 523, 560, 604, 624, 494, 574, 593, 565, 513, 537, 546, 577, 550, 526, 550, 545, 531, 488, 539, 549, 529, 446, 536, 525, 539, 483, 511, 597, 522, 485, 505, 510, 487, 417, 474, 568, 502, 455, 504, 509, 589, 561, 508, 572, 587, 521, 504, 452, 480, 482, 513, 466, 495, 570, 536, 592, 510, 445, 572, 602, 578, 526, 601, 535, 518, 498, 618, 666, 588, 596, 543, 507, 605, 607, 553, 564, 589, 600, 516, 550, 649, 679, 515, 551, 642, 616, 485, 467, 520, 567, 534, 568, 593, 503, 506, 559, 608, 586, 651, 629, 588, 551, 551, 508, 593, 649, 642, 591, 587, 637, 484, 505, 507, 483, 540, 593, 546, 461, 580, 559, 523, 585, 551, 592, 617, 520, 516, 588, 542, 586, 531, 590, 662, 513, 570, 605, 618, 623, 606, 655, 748, 593, 578, 651, 680, 760, 731, 745, 691, 617, 745, 601, 877, 1303, 1166, 664, 911, 919, 697, 642, 917, 1290, 1080, 710, 1036, 1032, 600, 802, 852, 737, 833, 1052, 988, 755, 586, 653, 747, 665, 675, 940, 1015, 766, 548, 519, 547, 648, 679, 583, 654, 635, 572, 544, 616, 682, 683, 665, 623, 649, 495, 504, 633, 669, 539, 722, 944, 809, 1641, 947, 1612, 1916, 1385, 1281, 3394, 3565, 2794, 1242, 2435, 2991, 2423, 1616, 5330, 5910, 2784, 1306, 2735, 2473, 2197, 1289, 4484, 5366, 2265, 1699, 3093, 3255, 1830, 2744, 4957, 4709, 3297, 3179, 4033, 4421, 2564, 4971, 10418, 9559, 2261, 2675, 3260, 3481, 2058, 3891, 7952, 7118, 975, 2688, 3545, 2522, 961, 2212, 4082, 3498, 2127, 4638, 4898, 2639, 1193, 2936, 5049, 4123, 2713, 6558, 5842, 2141, 1578, 4617, 6603, 4076, 2370, 5820, 4784, 1293, 1586, 4470, 6081, 3344, 1771, 3774, 3012, 1228, 1020, 3146, 4091, 2112, 1451, 1769, 1453, 1381, 691, 1918, 2262, 1318, 1073, 679, 1126, 1213, 653, 852, 913, 943, 930, 948, 744, 879, 695, 752, 929, 715, 867, 840, 646, 665, 657, 713, 716, 730, 886, 947, 828, 808, 719, 767, 811, 758, 751, 778, 670, 639, 622, 762, 751, 623, 683, 701, 757, 712, 630, 666, 714, 765, 816, 622, 855, 899, 641, 685, 653, 842, 695, 554, 712, 774, 647, 651, 684, 738, 636, 545, 523, 602, 631, 587, 535, 641, 794, 722, 619, 671, 692, 699, 594, 636, 869, 636, 750, 792, 695, 571, 527, 852, 865, 572, 792, 901, 659, 573, 891, 1052, 562, 642, 832, 795, 580, 665, 973, 892, 734, 603, 701, 663, 678, 773, 767, 766, 738, 672, 561, 570, 690, 636, 647, 726, 639, 733, 725, 657, 646, 639, 746, 662, 703, 688, 723, 642, 565, 633, 620, 627, 634, 576, 716, 718, 621, 506, 541, 660, 633, 667, 610, 641, 600, 614, 654, 658, 533, 651, 641, 597, 592, 601, 511, 474, 585, 680, 686, 598, 647, 630, 705, 659, 535, 602, 698, 670, 607, 711, 799, 707, 618, 591, 583, 593, 553, 719, 785, 612, 625, 574, 490, 616, 601, 589, 581, 570, 628, 639, 611, 630, 615, 541, 606, 605, 528, 716, 634, 547, 604, 577, 536, 505, 479, 531, 508, 464, 581, 649, 581, 486, 535, 632, 660, 588, 612, 707, 724, 667, 624, 589, 558, 617, 644, 690, 772, 693, 557, 576, 661, 654, 651, 645, 651, 599, 548, 513, 509, 589, 596, 575, 508, 528, 582, 503, 551, 556, 575, 568, 634, 636, 514, 563, 679, 615, 414, 526, 689, 696, 600, 518, 562, 619, 597, 446, 602, 725, 635, 636, 664, 671, 702, 656, 821, 809, 785, 655, 690, 658, 720, 673, 714, 764, 675, 691, 654, 603, 565, 685, 750, 664, 628, 636, 560, 599, 624, 728, 730, 625, 581, 586, 592, 579, 582, 585, 568, 675, 553, 578, 609, 624, 594, 517, 543, 582, 649, 574, 613, 667, 606, 584, 581, 621, 796, 640, 627, 738, 763, 608, 575, 719, 699, 660, 658, 683, 733, 621, 541, 646, 638, 593, 598, 601, 643, 676, 642, 582, 555, 532, 568, 535, 554, 672, 593, 546, 608, 586, 580, 602, 715, 682, 617, 654, 655, 486, 540, 672, 705, 618, 681, 728, 738, 658, 682, 661, 551, 614, 620, 695, 704, 721, 657, 551, 570, 582, 582, 671, 578, 553, 637, 645, 651, 618, 518, 540, 619, 632, 619, 553, 587, 625, 518, 574, 553, 651, 618, 519, 634, 727, 571, 555, 566, 569, 602, 569, 689, 640, 544, 631, 526, 459, 529, 617, 603, 434, 517, 674, 637, 555, 584, 501, 515, 550, 625, 690, 585, 588, 629, 605, 578, 583, 669, 724, 617, 495, 673, 704, 583, 546, 701, 739, 609, 517, 713, 660, 572, 592, 739, 771, 604, 600, 658, 589, 633, 618, 580, 581, 496, 666, 672, 562, 594, 589, 630, 544, 484, 593, 546, 565, 609, 635, 659, 551, 530, 530, 596, 640, 567, 595, 630, 576, 611, 579, 537, 636, 564, 590, 620, 584, 562, 547, 621, 569, 546, 642, 593, 619, 474, 483, 617, 631, 523, 579, 646, 614, 515, 631, 595, 515, 483, 614, 624, 497, 548, 622, 580, 593, 524, 571, 640, 522, 568, 571, 560, 544, 537, 581, 638, 584, 532, 556, 487, 495, 576, 529, 515, 515, 608, 443, 453, 569, 576, 469, 540, 640, 599, 547, 500, 549, 618, 548, 608, 671, 579, 568, 566, 587, 584, 553, 576, 639, 502, 440, 553, 630, 546, 513, 551, 596, 442, 429, 515, 542, 518, 590, 599, 519, 556, 481, 494, 605, 629, 661, 593, 548, 581, 510, 556, 641, 594, 521, 546, 601, 507, 454, 501, 570, 472, 441, 551, 579, 615, 528, 502, 544, 520, 570, 560, 550, 507, 547, 573, 488, 495, 594, 559, 509, 449, 526, 570, 452, 434, 525, 660, 601, 456, 508, 502, 478, 489, 485, 509, 504, 520, 512, 500, 549, 556, 438, 434, 525, 445, 344, 376, 427, 462, 440, 381, 448, 369, 436, 443, 404, 394, 418, 458, 411, 424, 412, 369, 362, 394, 380, 414, 417, 432, 437, 439, 523, 477, 443, 464, 430, 390, 390, 394, 439, 432, 465, 493, 418, 354, 451, 437, 395, 415, 447, 453, 360]"
