posz,velx,vely,velz,accx,accy,accz,p1x,p1y,p1z,p2x,p2y,p2z,p3x,p3y,p3z,p4x,p4y,p4z,p5x,p5y,p5z,heatmap
0.401128441095352,-0.0857992023229599,0.0022368561476469,0.0431043207645416,-0.101097099483013,0.0108514837920666,0.0411227084696293,-0.535573244094849,1.37557983398438,17.5,-0.443019151687622,1.24597549438477,19.25,0.0320537090301514,0.06866455078125,16.75,0.0955684185028076,0,16.25,0.204430341720581,0,18.25,"[635, 630, 514, 527, 628, 529, 516, 630, 604, 659, 553, 658, 642, 571, 597, 591, 530, 551, 563, 614, 581, 487, 506, 544, 570, 533, 515, 527, 533, 476, 553, 573, 470, 495, 472, 405, 464, 531, 562, 506, 423, 465, 496, 436, 437, 559, 603, 484, 475, 492, 518, 473, 478, 516, 581, 491, 492, 523, 494, 462, 540, 464, 523, 549, 497, 464, 458, 533, 534, 387, 463, 522, 487, 542, 553, 539, 505, 443, 465, 497, 525, 446, 469, 532, 556, 447, 492, 634, 421, 414, 452, 479, 504, 411, 504, 524, 467, 510, 492, 614, 568, 506, 533, 480, 578, 571, 581, 642, 558, 460, 527, 497, 535, 582, 562, 578, 564, 573, 550, 536, 565, 585, 500, 529, 510, 523, 514, 433, 545, 488, 537, 567, 442, 473, 477, 483, 628, 576, 593, 625, 554, 559, 606, 591, 555, 588, 581, 584, 584, 567, 625, 612, 577, 522, 489, 470, 643, 651, 548, 599, 559, 515, 466, 536, 632, 617, 593, 623, 634, 596, 534, 642, 679, 656, 547, 555, 540, 523, 548, 545, 575, 597, 592, 577, 572, 539, 640, 679, 571, 676, 631, 536, 571, 593, 599, 589, 510, 585, 594, 592, 568, 608, 585, 515, 512, 570, 609, 602, 508, 601, 626, 614, 479, 557, 662, 543, 431, 532, 549, 525, 496, 602, 601, 470, 572, 548, 470, 481, 566, 562, 489, 565, 580, 516, 416, 498, 598, 523, 468, 535, 584, 528, 490, 549, 632, 595, 536, 561, 530, 386, 447, 541, 588, 499, 466, 572, 441, 413, 486, 503, 553, 546, 486, 488, 591, 511, 532, 545, 531, 549, 567, 613, 567, 498, 665, 700, 518, 494, 612, 652, 589, 551, 603, 678, 516, 544, 619, 627, 571, 524, 541, 630, 564, 547, 541, 542, 546, 499, 564, 664, 590, 542, 504, 599, 603, 458, 543, 687, 584, 488, 522, 530, 599, 571, 704, 750, 579, 546, 535, 563, 648, 676, 668, 601, 517, 596, 532, 505, 584, 610, 514, 526, 542, 589, 594, 560, 514, 489, 451, 537, 591, 627, 576, 468, 554, 565, 498, 587, 642, 633, 567, 505, 571, 587, 566, 521, 582, 671, 563, 503, 520, 601, 691, 639, 503, 626, 658, 563, 554, 548, 675, 693, 571, 502, 544, 573, 535, 536, 641, 662, 584, 525, 522, 634, 556, 558, 657, 737, 647, 559, 627, 607, 609, 584, 657, 719, 652, 521, 579, 612, 589, 557, 680, 698, 626, 581, 611, 587, 527, 641, 671, 604, 612, 627, 599, 569, 464, 646, 606, 489, 578, 606, 605, 524, 535, 587, 580, 544, 607, 590, 623, 548, 572, 674, 600, 582, 677, 606, 533, 580, 587, 647, 652, 577, 590, 614, 551, 595, 555, 562, 605, 559, 617, 648, 507, 466, 612, 603, 708, 706, 615, 604, 706, 666, 953, 1478, 1983, 1462, 776, 1017, 1915, 1906, 861, 3743, 4378, 2668, 809, 2654, 4357, 3261, 1884, 4189, 4794, 2786, 1580, 3259, 5471, 4609, 1229, 2272, 2852, 1564, 1104, 1746, 3694, 3581, 2076, 3565, 3634, 1916, 599, 2112, 3788, 3345, 2481, 5808, 5883, 3221, 631, 3896, 6113, 4454, 1572, 4394, 4301, 2337, 640, 3212, 4914, 3117, 721, 1663, 1660, 1035, 538, 1372, 1988, 1304, 583, 657, 649, 606, 552, 600, 757, 622, 612, 742, 639, 555, 629, 600, 657, 618, 921, 940, 1163, 836, 672, 716, 1115, 1256, 1198, 1229, 1900, 1432, 790, 826, 1765, 1972, 1467, 1606, 2214, 1562, 780, 999, 2046, 2333, 2096, 1597, 2426, 2072, 1305, 1526, 1910, 2589, 2310, 3478, 3558, 2448, 1609, 2431, 2680, 2561, 1959, 4049, 3724, 1907, 1136, 2082, 2739, 1891, 1100, 2236, 2039, 982, 710, 866, 1429, 1016, 591, 1097, 1109, 725, 660, 741, 808, 671, 654, 797, 737, 679, 659, 657, 654, 538, 737, 741, 618, 553, 673, 727, 710, 635, 792, 814, 645, 588, 633, 743, 728, 603, 707, 741, 653, 640, 649, 666, 642, 534, 701, 721, 557, 613, 653, 649, 667, 660, 734, 838, 687, 676, 648, 606, 688, 657, 689, 787, 763, 705, 635, 589, 696, 604, 732, 657, 627, 678, 591, 508, 584, 644, 638, 595, 585, 606, 530, 516, 486, 596, 663, 680, 672, 609, 605, 609, 626, 639, 564, 601, 617, 625, 627, 652, 613, 524, 681, 641, 608, 622, 650, 611, 601, 605, 575, 618, 650, 586, 609, 600, 586, 575, 519, 644, 612, 560, 598, 596, 607, 535, 542, 633, 593, 581, 551, 534, 565, 520, 488, 495, 518, 542, 497, 498, 550, 524, 549, 503, 525, 595, 533, 598, 575, 541, 558, 544, 560, 684, 637, 505, 572, 580, 614, 618, 642, 593, 588, 594, 610, 593, 584, 574, 574, 613, 572, 566, 551, 607, 612, 547, 541, 598, 561, 533, 525, 610, 713, 689, 593, 575, 560, 587, 526, 597, 683, 676, 554, 665, 727, 665, 589, 592, 788, 681, 594, 645, 608, 626, 618, 578, 736, 672, 613, 661, 610, 688, 607, 550, 716, 681, 681, 708, 627, 711, 746, 765, 781, 742, 661, 670, 615, 686, 795, 714, 689, 722, 575, 661, 623, 688, 770, 636, 566, 598, 497, 646, 567, 526, 630, 563, 670, 650, 649, 677, 623, 566, 612, 639, 648, 681, 768, 711, 606, 624, 650, 681, 678, 684, 808, 794, 751, 647, 674, 806, 609, 633, 668, 716, 654, 682, 796, 698, 705, 663, 697, 699, 581, 758, 990, 953, 764, 738, 678, 683, 740, 730, 1001, 1026, 717, 716, 751, 756, 681, 725, 926, 966, 600, 586, 707, 672, 594, 626, 839, 830, 641, 670, 707, 627, 511, 570, 624, 664, 690, 718, 810, 612, 619, 606, 707, 788, 605, 775, 939, 692, 628, 542, 746, 861, 592, 684, 731, 637, 582, 567, 592, 652, 595, 637, 675, 681, 607, 635, 669, 666, 691, 650, 634, 649, 632, 618, 633, 691, 578, 496, 506, 549, 517, 478, 525, 585, 547, 465, 499, 526, 428, 502, 538, 573, 565, 528, 540, 490, 467, 542, 561, 583, 453, 471, 464, 492, 505, 412, 449, 498, 548, 488, 469, 536, 530, 511, 545, 557, 468, 435, 408, 411, 521, 550, 496, 498, 429, 450, 426, 375, 412, 451, 457, 415, 475, 444, 436, 460, 432, 386, 359, 400, 400, 404, 405, 354, 428, 503, 458, 407]"
0.292136758565903,0.0562314093112946,0.00604655873030424,-0.182271629571915,0.114050097763538,0.0428475476801395,-0.188465908169746,-0.737661957740784,1.04913711547852,19,-0.361294388771057,-0.912237167358398,19.5,-0.157875657081604,-0.95515251159668,17.75,0.109200835227966,-0.0732421875,20.5,0.15855348110199,0.0735282897949219,18.75,"[499, 598, 731, 624, 459, 625, 727, 595, 483, 506, 651, 738, 602, 588, 729, 633, 510, 479, 514, 562, 571, 594, 550, 507, 512, 536, 530, 529, 536, 537, 474, 489, 510, 508, 462, 473, 525, 529, 487, 532, 542, 539, 439, 448, 514, 526, 487, 484, 552, 497, 455, 527, 573, 534, 497, 515, 557, 560, 548, 537, 491, 581, 591, 564, 624, 554, 501, 539, 476, 460, 484, 556, 627, 630, 496, 564, 602, 554, 479, 507, 569, 483, 470, 492, 626, 601, 512, 522, 492, 476, 546, 511, 565, 573, 502, 460, 408, 488, 505, 558, 471, 499, 505, 451, 507, 613, 607, 594, 579, 576, 625, 609, 549, 569, 642, 587, 588, 627, 644, 628, 485, 437, 496, 520, 504, 488, 530, 521, 562, 744, 715, 574, 575, 671, 685, 570, 561, 749, 661, 505, 478, 573, 682, 574, 511, 656, 583, 474, 521, 578, 615, 554, 647, 627, 532, 517, 527, 536, 558, 593, 569, 604, 544, 513, 492, 526, 634, 624, 620, 638, 534, 567, 677, 623, 516, 581, 569, 544, 516, 516, 606, 582, 595, 624, 533, 599, 565, 501, 475, 490, 598, 560, 494, 644, 585, 502, 491, 564, 611, 563, 555, 575, 595, 524, 575, 533, 532, 626, 563, 532, 514, 581, 623, 489, 506, 589, 549, 578, 498, 550, 497, 473, 538, 508, 537, 520, 529, 503, 454, 518, 504, 426, 616, 591, 600, 569, 526, 604, 517, 510, 551, 562, 550, 521, 559, 532, 449, 507, 587, 533, 574, 585, 534, 577, 579, 585, 587, 496, 585, 646, 488, 507, 555, 573, 571, 648, 668, 578, 497, 526, 475, 481, 547, 556, 548, 480, 501, 556, 507, 516, 596, 616, 568, 565, 548, 506, 496, 553, 585, 607, 560, 505, 618, 591, 459, 516, 636, 690, 644, 548, 603, 642, 598, 606, 603, 644, 690, 558, 604, 647, 599, 618, 560, 572, 609, 490, 540, 593, 543, 543, 581, 594, 672, 625, 513, 481, 545, 580, 572, 573, 702, 608, 507, 589, 627, 630, 548, 563, 670, 698, 677, 659, 603, 583, 451, 567, 549, 608, 589, 621, 656, 532, 541, 646, 566, 544, 621, 689, 658, 536, 624, 689, 621, 555, 607, 625, 652, 559, 579, 619, 652, 572, 572, 637, 638, 569, 484, 572, 570, 562, 561, 641, 704, 589, 569, 594, 586, 581, 572, 588, 638, 616, 580, 647, 649, 628, 573, 615, 606, 561, 659, 708, 675, 572, 684, 649, 559, 551, 671, 679, 689, 655, 640, 598, 541, 679, 581, 524, 591, 574, 538, 592, 601, 635, 537, 543, 590, 604, 546, 585, 566, 490, 560, 598, 679, 656, 547, 657, 680, 579, 586, 601, 576, 557, 622, 633, 583, 592, 520, 520, 509, 550, 529, 548, 544, 502, 715, 677, 753, 670, 615, 684, 749, 735, 1323, 1814, 1975, 1221, 788, 1231, 1814, 1789, 2495, 2464, 1755, 848, 1395, 1737, 1388, 1572, 3821, 1927, 2266, 2115, 2377, 1767, 3973, 5263, 2705, 2226, 3207, 2675, 2081, 2061, 5002, 5342, 2165, 3554, 4183, 2781, 1130, 2423, 3320, 3176, 3657, 7034, 8032, 4166, 1645, 4455, 8106, 7421, 2789, 6707, 7262, 3580, 1334, 4221, 7509, 6347, 1464, 3520, 3643, 1721, 910, 2122, 3739, 3015, 831, 1593, 1529, 788, 566, 1024, 1556, 1181, 695, 877, 813, 557, 572, 728, 839, 734, 695, 601, 516, 493, 536, 634, 616, 612, 890, 1751, 1733, 970, 590, 1163, 1683, 1181, 1245, 3527, 3409, 1465, 871, 2538, 3493, 2092, 1581, 2986, 2529, 1152, 1191, 2544, 2911, 1442, 1291, 1516, 1970, 1391, 1253, 1894, 1757, 1479, 982, 1734, 2263, 1536, 1131, 1482, 1571, 1652, 788, 1334, 1548, 957, 783, 1054, 1135, 1083, 619, 646, 736, 677, 683, 697, 623, 616, 635, 691, 651, 646, 678, 667, 652, 598, 659, 558, 621, 700, 687, 626, 665, 735, 734, 642, 718, 839, 792, 792, 791, 811, 637, 714, 976, 927, 721, 889, 894, 657, 534, 706, 852, 727, 633, 708, 707, 642, 584, 1053, 1091, 722, 651, 690, 819, 741, 522, 762, 821, 608, 661, 527, 705, 693, 517, 666, 794, 611, 509, 570, 621, 662, 549, 764, 758, 560, 574, 627, 651, 598, 691, 859, 749, 585, 683, 714, 636, 589, 641, 659, 659, 591, 717, 637, 564, 604, 541, 573, 580, 491, 641, 663, 550, 547, 539, 604, 588, 545, 569, 637, 589, 500, 665, 684, 624, 659, 690, 604, 587, 632, 550, 517, 531, 650, 640, 534, 563, 531, 585, 576, 573, 571, 600, 614, 572, 551, 502, 455, 601, 583, 562, 483, 525, 646, 549, 581, 561, 472, 598, 634, 605, 574, 582, 563, 560, 546, 525, 496, 508, 530, 670, 613, 560, 588, 595, 525, 450, 559, 536, 504, 521, 612, 547, 470, 438, 546, 658, 584, 614, 609, 639, 618, 562, 602, 726, 702, 603, 561, 553, 549, 581, 615, 607, 607, 645, 660, 640, 593, 465, 544, 533, 571, 682, 689, 623, 571, 495, 536, 492, 582, 607, 586, 549, 598, 601, 549, 543, 580, 605, 604, 567, 609, 651, 591, 598, 617, 593, 543, 550, 569, 644, 686, 640, 647, 593, 603, 622, 621, 590, 606, 688, 656, 535, 640, 653, 633, 565, 574, 703, 604, 591, 654, 567, 527, 618, 663, 622, 609, 611, 590, 666, 670, 640, 632, 628, 591, 540, 509, 615, 687, 570, 605, 669, 656, 686, 587, 611, 703, 816, 800, 673, 672, 728, 709, 657, 581, 698, 757, 649, 579, 654, 632, 660, 562, 582, 776, 703, 452, 631, 684, 636, 520, 520, 835, 714, 519, 547, 632, 648, 578, 543, 767, 544, 614, 544, 538, 626, 606, 644, 621, 500, 572, 580, 529, 481, 486, 613, 579, 473, 481, 563, 549, 502, 472, 587, 574, 578, 556, 563, 556, 575, 568, 462, 493, 549, 639, 627, 529, 551, 580, 552, 559, 466, 574, 532, 453, 511, 521, 515, 488, 399, 451, 527, 479, 428, 440, 410, 416, 426, 516, 508, 429, 427, 457, 493, 457, 474, 439, 424, 439, 414, 430, 479, 496, 438, 431, 475, 460, 390, 422, 446, 446, 350, 325, 416, 426, 384, 372, 436, 463, 369, 406, 399, 367, 414, 435, 381, 329, 380, 393, 427, 416, 437, 419, 388, 394, 469, 449, 442, 497, 479, 515, 447, 455]"
0.294759094715118,-0.0489863753318787,0.0745693445205689,-0.106236666440964,-0.0809086561203003,0.163675501942635,-0.0886251330375671,-0.444093942642212,-1.38044357299805,18,-0.43007493019104,-1.31063461303711,19.75,0.171884298324585,-0.145339965820313,17.75,0.199922323226929,-0.292253494262695,15.75,0.204070806503296,0,19.25,"[509, 576, 579, 568, 627, 568, 577, 576, 559, 587, 601, 674, 663, 570, 624, 579, 600, 551, 543, 632, 587, 530, 570, 572, 488, 436, 475, 530, 565, 502, 515, 529, 536, 472, 508, 493, 456, 478, 511, 617, 516, 556, 546, 513, 472, 502, 523, 450, 504, 598, 565, 533, 494, 493, 523, 428, 516, 599, 546, 469, 544, 537, 443, 469, 523, 575, 517, 516, 614, 565, 512, 519, 544, 512, 515, 558, 587, 612, 556, 539, 493, 462, 529, 535, 441, 558, 541, 533, 488, 571, 587, 560, 482, 573, 609, 492, 577, 605, 568, 597, 573, 544, 571, 572, 616, 586, 514, 719, 700, 523, 583, 566, 597, 556, 481, 586, 572, 496, 534, 568, 562, 551, 580, 497, 428, 452, 561, 581, 806, 1034, 887, 554, 582, 621, 748, 654, 811, 1059, 890, 540, 610, 688, 804, 615, 647, 591, 638, 686, 596, 557, 607, 619, 587, 588, 558, 614, 624, 583, 584, 625, 552, 650, 610, 584, 570, 497, 584, 521, 647, 669, 622, 551, 596, 528, 487, 586, 535, 577, 601, 585, 579, 566, 477, 539, 515, 569, 594, 554, 599, 621, 547, 496, 517, 560, 604, 538, 537, 574, 536, 548, 573, 600, 594, 648, 626, 544, 580, 586, 533, 570, 557, 611, 624, 521, 600, 571, 480, 570, 541, 591, 608, 548, 583, 594, 422, 533, 618, 596, 571, 535, 612, 609, 501, 566, 577, 542, 512, 473, 570, 563, 533, 579, 599, 591, 553, 510, 573, 601, 549, 701, 630, 591, 549, 554, 579, 523, 503, 559, 563, 573, 574, 479, 487, 500, 564, 615, 540, 579, 650, 518, 428, 567, 644, 553, 559, 638, 553, 552, 493, 567, 668, 562, 506, 561, 475, 598, 550, 509, 615, 566, 564, 495, 568, 558, 523, 548, 561, 643, 630, 526, 533, 548, 511, 490, 564, 583, 531, 513, 625, 613, 527, 564, 612, 633, 570, 545, 627, 633, 520, 568, 651, 693, 593, 552, 575, 623, 545, 572, 651, 721, 655, 644, 631, 659, 678, 620, 586, 624, 630, 607, 673, 659, 642, 644, 669, 615, 575, 638, 735, 653, 548, 659, 590, 557, 540, 585, 649, 622, 540, 573, 486, 516, 612, 543, 480, 642, 605, 520, 509, 491, 587, 640, 501, 541, 576, 503, 602, 553, 476, 569, 626, 562, 553, 598, 557, 481, 506, 552, 554, 475, 531, 595, 587, 555, 656, 599, 533, 507, 554, 632, 696, 713, 649, 579, 589, 609, 512, 607, 678, 712, 635, 526, 615, 674, 646, 590, 636, 574, 585, 636, 590, 645, 667, 696, 654, 555, 544, 608, 577, 572, 616, 671, 650, 628, 584, 549, 532, 596, 599, 659, 570, 571, 512, 540, 532, 568, 604, 564, 568, 534, 537, 571, 526, 454, 589, 633, 724, 738, 920, 752, 524, 666, 995, 1036, 1222, 1682, 2501, 1725, 695, 1134, 2476, 2615, 1032, 2166, 2874, 1816, 626, 1518, 2950, 2765, 574, 1507, 1847, 1279, 570, 1169, 1859, 1493, 705, 801, 1018, 786, 586, 704, 1019, 1073, 1695, 4282, 4966, 2931, 965, 2865, 5038, 4034, 2317, 7555, 8221, 4285, 830, 4861, 8310, 6245, 1602, 5043, 5208, 2454, 637, 3294, 5455, 3977, 657, 1377, 1360, 754, 559, 1121, 1587, 1187, 581, 614, 722, 669, 553, 566, 653, 714, 582, 667, 716, 649, 550, 650, 757, 693, 775, 1093, 1032, 728, 696, 841, 863, 764, 937, 967, 912, 737, 744, 820, 684, 744, 811, 1088, 1048, 850, 864, 766, 971, 1083, 1013, 1947, 1832, 983, 911, 1013, 1583, 1393, 759, 1436, 1345, 771, 704, 888, 1223, 1009, 651, 1010, 918, 583, 678, 744, 786, 668, 569, 779, 778, 670, 640, 601, 692, 574, 609, 674, 664, 740, 739, 638, 640, 648, 652, 622, 617, 586, 639, 572, 544, 622, 749, 756, 660, 631, 689, 739, 644, 672, 640, 682, 720, 799, 713, 636, 584, 609, 633, 731, 863, 727, 617, 757, 724, 564, 743, 824, 780, 588, 653, 861, 719, 582, 928, 1105, 938, 662, 737, 782, 605, 645, 840, 980, 899, 810, 820, 673, 642, 675, 688, 740, 777, 737, 628, 638, 688, 644, 609, 636, 619, 622, 598, 540, 494, 581, 619, 548, 651, 630, 530, 493, 558, 623, 618, 627, 597, 571, 654, 579, 571, 573, 553, 646, 599, 674, 541, 575, 650, 504, 627, 715, 627, 597, 574, 657, 705, 555, 717, 666, 587, 668, 735, 714, 663, 632, 618, 579, 638, 601, 557, 594, 545, 607, 571, 626, 674, 564, 583, 702, 611, 564, 517, 588, 596, 538, 565, 591, 605, 581, 485, 563, 575, 550, 594, 506, 515, 538, 559, 529, 538, 564, 591, 512, 509, 521, 489, 588, 618, 610, 586, 555, 664, 619, 526, 578, 625, 587, 592, 524, 550, 587, 647, 606, 553, 613, 635, 546, 607, 623, 521, 489, 534, 592, 587, 502, 510, 556, 577, 522, 559, 605, 522, 488, 511, 546, 575, 567, 530, 580, 536, 543, 529, 517, 568, 494, 521, 619, 537, 575, 596, 566, 532, 538, 584, 584, 596, 610, 660, 632, 546, 486, 612, 682, 647, 513, 515, 684, 571, 585, 584, 587, 635, 581, 542, 571, 630, 544, 538, 679, 710, 634, 635, 627, 514, 555, 660, 642, 617, 643, 648, 580, 517, 557, 609, 511, 533, 538, 498, 514, 540, 564, 541, 521, 520, 540, 482, 513, 632, 586, 577, 547, 596, 592, 561, 653, 596, 518, 569, 523, 511, 552, 568, 628, 676, 554, 481, 571, 606, 568, 637, 662, 643, 535, 524, 588, 493, 580, 612, 574, 635, 653, 646, 620, 474, 558, 598, 532, 595, 608, 597, 560, 447, 558, 612, 563, 560, 543, 547, 547, 495, 505, 609, 585, 576, 530, 497, 523, 517, 519, 574, 549, 652, 529, 622, 687, 584, 615, 730, 762, 537, 548, 577, 563, 551, 569, 637, 704, 453, 499, 519, 489, 457, 465, 532, 547, 429, 416, 415, 395, 459, 458, 465, 467, 477, 426, 461, 470, 460, 508, 461, 494, 474, 437, 431, 405, 402, 456, 467, 457, 406, 473, 468, 420, 427, 442, 527, 479, 423, 365, 417, 457, 435, 358, 423, 470, 528, 473, 406, 469, 420, 448, 421, 438, 445, 456, 423, 442, 433, 403, 390, 442, 450, 456, 381, 388, 514, 457, 328, 387]"
0.343616127967835,-0.0992328375577927,0.0508584231138229,0.00719908624887466,-0.144497722387314,0.0990718975663185,0.0334088057279587,-0.382418990135193,1.02982521057129,17.5,-0.328488707542419,1.03869438171387,18.5,-0.142236113548279,0.704097747802734,16.75,0.0397249460220337,0.287103652954102,17.25,0.134567856788635,0,15.75,"[498, 568, 654, 690, 670, 688, 656, 567, 574, 602, 615, 690, 722, 666, 698, 626, 610, 661, 634, 641, 666, 665, 663, 612, 513, 476, 457, 518, 506, 489, 519, 553, 482, 481, 541, 504, 485, 492, 496, 517, 583, 592, 547, 523, 513, 559, 593, 580, 489, 503, 487, 580, 544, 547, 557, 489, 499, 461, 522, 559, 530, 508, 467, 493, 514, 471, 449, 482, 562, 482, 450, 483, 515, 501, 544, 579, 546, 512, 585, 618, 498, 491, 450, 564, 549, 521, 662, 586, 499, 500, 394, 512, 551, 533, 578, 504, 578, 503, 527, 589, 524, 450, 486, 538, 627, 504, 578, 618, 553, 546, 479, 554, 608, 534, 493, 554, 543, 588, 583, 619, 661, 624, 572, 577, 515, 502, 562, 598, 771, 832, 780, 649, 533, 552, 579, 606, 795, 898, 785, 634, 574, 605, 609, 609, 622, 673, 546, 477, 510, 551, 581, 535, 484, 627, 606, 460, 522, 515, 466, 489, 507, 643, 588, 503, 577, 591, 490, 481, 576, 545, 572, 614, 648, 649, 555, 532, 474, 464, 469, 544, 618, 604, 480, 410, 564, 490, 470, 491, 548, 584, 549, 505, 553, 532, 487, 482, 496, 569, 588, 507, 489, 488, 552, 561, 514, 514, 561, 567, 555, 505, 596, 664, 523, 483, 616, 649, 659, 520, 511, 689, 697, 613, 582, 631, 619, 495, 493, 582, 655, 688, 547, 561, 546, 518, 591, 597, 661, 627, 532, 579, 458, 544, 505, 471, 506, 544, 570, 511, 562, 584, 560, 574, 554, 566, 528, 530, 459, 487, 514, 523, 484, 575, 512, 412, 513, 560, 593, 579, 590, 563, 550, 526, 569, 504, 507, 543, 547, 543, 554, 571, 498, 476, 447, 477, 539, 537, 424, 469, 466, 464, 525, 565, 479, 472, 526, 533, 531, 587, 576, 533, 526, 548, 503, 429, 593, 532, 485, 635, 648, 602, 547, 559, 581, 499, 475, 554, 625, 604, 567, 568, 588, 589, 549, 507, 619, 572, 593, 570, 538, 520, 580, 632, 620, 634, 673, 699, 511, 565, 637, 641, 631, 649, 655, 619, 557, 596, 594, 604, 627, 614, 643, 633, 569, 607, 666, 642, 620, 555, 533, 544, 568, 631, 668, 693, 572, 516, 612, 609, 548, 620, 673, 639, 625, 616, 583, 580, 604, 575, 575, 632, 709, 619, 590, 591, 530, 571, 552, 530, 580, 576, 513, 495, 658, 687, 582, 542, 650, 617, 500, 568, 617, 629, 545, 566, 604, 616, 512, 504, 607, 598, 576, 565, 546, 609, 550, 496, 636, 636, 529, 553, 625, 632, 505, 515, 609, 555, 610, 651, 575, 578, 573, 576, 616, 486, 563, 644, 553, 571, 552, 577, 621, 633, 600, 649, 644, 611, 460, 492, 639, 712, 643, 644, 582, 577, 587, 548, 691, 726, 655, 620, 647, 629, 713, 723, 1077, 1343, 1763, 1259, 808, 919, 1918, 2028, 1234, 2533, 3612, 2267, 980, 1722, 4042, 3963, 1143, 2656, 3564, 2124, 1016, 2012, 4414, 4112, 1404, 1952, 2451, 1533, 1134, 1539, 3589, 3527, 1125, 2407, 2971, 1603, 937, 1774, 4017, 3824, 1159, 3345, 3793, 1868, 820, 2313, 4526, 3973, 987, 2303, 2414, 1165, 708, 1550, 2822, 2380, 772, 1201, 1238, 790, 651, 826, 1236, 1011, 631, 716, 782, 696, 582, 583, 671, 686, 625, 563, 521, 611, 564, 545, 572, 557, 640, 754, 639, 593, 569, 631, 654, 627, 918, 800, 755, 762, 688, 763, 1041, 1137, 1661, 1117, 1727, 1401, 866, 1211, 2144, 2467, 2329, 1761, 2725, 2091, 1375, 1667, 2164, 2982, 2425, 2203, 2391, 1975, 1627, 2281, 1868, 2382, 1481, 1493, 1186, 951, 931, 1649, 1492, 1114, 815, 742, 858, 899, 580, 800, 855, 735, 673, 793, 892, 770, 614, 798, 738, 602, 642, 865, 875, 721, 691, 716, 701, 609, 638, 752, 715, 690, 640, 599, 676, 613, 854, 807, 693, 809, 700, 662, 810, 719, 814, 813, 1054, 1216, 878, 767, 928, 847, 667, 692, 925, 973, 760, 688, 793, 742, 682, 720, 771, 724, 639, 639, 718, 746, 696, 727, 689, 600, 615, 668, 653, 593, 716, 754, 683, 594, 641, 722, 651, 589, 704, 570, 611, 608, 620, 561, 623, 729, 705, 624, 486, 561, 674, 661, 544, 611, 622, 689, 629, 540, 612, 635, 561, 555, 633, 746, 659, 559, 533, 521, 582, 526, 580, 672, 702, 606, 598, 576, 584, 560, 598, 656, 632, 600, 672, 669, 636, 625, 484, 548, 567, 619, 610, 596, 651, 595, 560, 552, 556, 592, 615, 527, 543, 585, 612, 622, 553, 576, 661, 608, 548, 557, 627, 620, 566, 605, 599, 557, 528, 573, 627, 599, 620, 603, 599, 573, 554, 630, 573, 544, 564, 618, 687, 630, 610, 649, 554, 554, 487, 544, 568, 588, 571, 564, 670, 682, 560, 570, 627, 580, 562, 631, 688, 624, 531, 600, 658, 665, 596, 604, 717, 595, 526, 572, 653, 631, 591, 631, 581, 545, 544, 602, 680, 661, 605, 601, 601, 501, 588, 695, 708, 582, 511, 587, 636, 596, 482, 595, 593, 527, 483, 527, 607, 556, 572, 583, 642, 631, 546, 570, 590, 605, 624, 609, 567, 616, 587, 540, 485, 541, 686, 715, 581, 548, 654, 530, 565, 627, 670, 594, 534, 612, 658, 552, 524, 473, 521, 522, 513, 522, 560, 530, 595, 558, 608, 610, 523, 508, 602, 625, 588, 565, 673, 673, 568, 534, 521, 616, 621, 621, 560, 571, 655, 568, 468, 507, 495, 578, 671, 649, 563, 533, 575, 568, 500, 489, 597, 673, 599, 585, 608, 594, 541, 569, 609, 570, 547, 591, 614, 595, 512, 611, 739, 668, 480, 478, 661, 588, 575, 638, 734, 661, 522, 525, 625, 654, 673, 577, 627, 593, 496, 519, 568, 680, 683, 564, 711, 687, 602, 626, 658, 763, 503, 693, 713, 534, 493, 542, 693, 662, 486, 551, 573, 423, 429, 415, 504, 586, 452, 482, 447, 392, 429, 456, 443, 458, 421, 443, 501, 471, 527, 464, 456, 439, 510, 445, 518, 535, 503, 387, 424, 565, 456, 506, 509, 471, 436, 450, 517, 483, 407, 422, 495, 504, 365, 425, 548, 487, 419, 405, 427, 422, 380, 376, 430, 448, 423, 492, 426, 391, 401, 400, 409, 341, 481, 472, 399, 378, 420, 419, 387, 398]"
0.42375436425209,-0.100935429334641,0.105665773153305,0.183952480554581,-0.0710854083299637,0.227402418851852,0.231471553444862,-0.213509321212769,0.826120376586914,18.75,-0.1419837474823,0.841426849365234,19,-0.118237257003784,0.831842422485352,20.5,0.0723068714141846,0.142049789428711,16,0.0790302753448486,-0.275516510009766,19,"[657, 632, 629, 617, 651, 614, 629, 632, 516, 561, 555, 549, 595, 707, 666, 561, 538, 551, 505, 519, 577, 590, 574, 549, 624, 581, 556, 530, 533, 605, 559, 589, 530, 490, 487, 534, 536, 541, 569, 546, 528, 509, 474, 464, 498, 507, 479, 492, 479, 457, 455, 426, 469, 474, 459, 498, 453, 474, 515, 504, 454, 464, 479, 504, 488, 492, 578, 508, 372, 447, 512, 551, 697, 612, 569, 618, 548, 556, 515, 595, 623, 551, 584, 622, 587, 543, 494, 558, 529, 534, 511, 555, 568, 487, 441, 519, 503, 449, 488, 563, 562, 432, 530, 556, 528, 433, 548, 590, 570, 449, 485, 646, 500, 465, 567, 548, 598, 466, 429, 563, 619, 596, 579, 630, 563, 495, 531, 598, 705, 755, 604, 511, 487, 528, 581, 607, 661, 768, 666, 608, 608, 611, 704, 594, 559, 651, 564, 609, 603, 588, 626, 509, 562, 599, 502, 549, 539, 589, 519, 450, 426, 459, 522, 519, 505, 667, 672, 502, 511, 530, 650, 633, 551, 708, 668, 569, 522, 533, 562, 504, 407, 563, 606, 504, 540, 554, 607, 549, 555, 645, 539, 453, 501, 528, 600, 550, 546, 544, 518, 470, 499, 479, 601, 544, 452, 568, 606, 574, 492, 576, 612, 508, 507, 607, 566, 512, 580, 667, 604, 522, 587, 651, 532, 493, 545, 479, 482, 491, 486, 505, 487, 484, 553, 580, 539, 585, 564, 499, 576, 593, 494, 488, 526, 642, 543, 475, 577, 543, 426, 475, 472, 518, 504, 463, 527, 471, 564, 468, 496, 568, 558, 515, 497, 558, 579, 591, 598, 632, 629, 578, 564, 551, 487, 521, 545, 595, 619, 622, 585, 543, 456, 509, 597, 538, 557, 595, 602, 541, 449, 535, 536, 545, 525, 507, 529, 500, 537, 595, 565, 562, 636, 634, 530, 472, 546, 587, 666, 616, 481, 565, 576, 496, 592, 547, 595, 634, 565, 604, 588, 588, 514, 512, 534, 565, 547, 569, 569, 604, 584, 582, 624, 647, 600, 571, 628, 639, 512, 524, 564, 561, 541, 518, 517, 480, 572, 578, 532, 555, 577, 570, 531, 545, 668, 687, 645, 665, 640, 581, 591, 643, 644, 632, 681, 631, 612, 616, 606, 673, 611, 648, 636, 581, 566, 533, 523, 588, 567, 640, 657, 583, 613, 713, 592, 456, 543, 554, 605, 595, 686, 787, 638, 495, 613, 604, 538, 556, 654, 659, 603, 539, 625, 597, 579, 644, 571, 554, 547, 567, 589, 688, 634, 694, 660, 535, 597, 571, 525, 636, 671, 616, 579, 500, 538, 596, 565, 661, 633, 597, 633, 528, 580, 589, 593, 520, 432, 482, 546, 567, 550, 501, 563, 561, 544, 503, 559, 568, 501, 513, 580, 629, 610, 554, 571, 602, 537, 592, 615, 674, 678, 603, 552, 536, 575, 529, 1080, 1381, 1730, 1241, 681, 896, 1728, 1798, 2059, 4114, 5290, 3339, 1075, 2553, 4996, 4707, 1406, 5372, 6521, 3853, 858, 3388, 6040, 4928, 710, 3854, 5004, 2984, 749, 2484, 5000, 4379, 841, 2588, 3165, 1798, 680, 1697, 3499, 3127, 946, 1525, 1466, 1200, 642, 1239, 1880, 1347, 950, 1999, 2633, 1816, 739, 1655, 3025, 2619, 693, 1802, 2145, 1395, 649, 1424, 2443, 2000, 503, 712, 793, 653, 565, 660, 877, 777, 541, 514, 478, 553, 600, 521, 500, 567, 457, 480, 543, 508, 451, 491, 552, 501, 566, 518, 601, 660, 573, 612, 672, 620, 1030, 1168, 1109, 744, 854, 1101, 863, 741, 1182, 1475, 1620, 1067, 931, 1334, 1199, 1133, 722, 1481, 1883, 1316, 851, 951, 958, 1156, 796, 1721, 1924, 1238, 778, 840, 841, 918, 805, 1147, 1183, 852, 736, 759, 676, 715, 720, 682, 763, 686, 616, 603, 542, 636, 633, 694, 664, 698, 645, 602, 651, 558, 639, 721, 662, 757, 669, 650, 680, 614, 800, 667, 686, 821, 733, 780, 720, 632, 972, 842, 828, 941, 764, 969, 994, 716, 767, 739, 848, 866, 629, 777, 776, 684, 629, 684, 799, 692, 577, 645, 602, 696, 580, 704, 731, 594, 657, 748, 647, 606, 662, 723, 666, 599, 690, 738, 669, 580, 511, 653, 622, 527, 530, 629, 689, 590, 610, 531, 539, 557, 569, 610, 562, 631, 566, 628, 641, 584, 532, 585, 570, 527, 567, 694, 712, 529, 575, 649, 671, 646, 630, 657, 638, 568, 681, 622, 607, 657, 657, 613, 571, 493, 645, 598, 485, 599, 534, 607, 602, 491, 560, 586, 576, 588, 476, 543, 518, 471, 560, 531, 501, 530, 501, 575, 647, 584, 532, 567, 546, 529, 639, 635, 560, 543, 587, 601, 590, 576, 599, 583, 591, 536, 546, 545, 472, 540, 549, 544, 528, 513, 563, 592, 545, 518, 564, 607, 554, 552, 617, 620, 531, 489, 573, 570, 484, 556, 617, 558, 436, 471, 613, 597, 566, 605, 552, 550, 571, 525, 585, 613, 648, 608, 558, 572, 613, 577, 574, 557, 572, 552, 509, 564, 546, 556, 566, 479, 498, 583, 555, 583, 520, 508, 473, 487, 604, 579, 523, 546, 590, 618, 524, 541, 648, 610, 482, 532, 633, 653, 508, 495, 584, 543, 513, 492, 557, 632, 534, 513, 611, 609, 506, 469, 553, 624, 584, 542, 552, 572, 543, 532, 497, 531, 570, 566, 550, 564, 609, 616, 583, 603, 567, 627, 578, 489, 535, 638, 611, 571, 663, 578, 645, 635, 599, 537, 591, 678, 637, 596, 603, 581, 572, 514, 529, 616, 556, 553, 551, 540, 590, 542, 515, 611, 501, 531, 499, 474, 469, 499, 508, 506, 556, 612, 543, 521, 549, 550, 573, 583, 540, 608, 669, 669, 633, 639, 664, 697, 455, 507, 675, 653, 592, 556, 618, 674, 655, 523, 559, 597, 577, 609, 541, 626, 686, 523, 639, 769, 718, 664, 563, 705, 607, 510, 606, 637, 643, 651, 630, 660, 546, 522, 520, 489, 523, 606, 600, 572, 584, 439, 463, 462, 486, 465, 514, 546, 562, 526, 510, 458, 486, 510, 476, 584, 487, 482, 485, 456, 474, 461, 446, 494, 468, 478, 434, 399, 465, 506, 459, 472, 443, 400, 365, 342, 421, 480, 481, 466, 430, 399, 365, 379, 532, 514, 471, 423, 431, 386, 380, 408, 425, 372, 407, 434, 446, 441, 412, 442, 485, 445, 390, 414]"
0.200697332620621,-0.212105825543404,0.353939175605774,-0.296276062726975,-0.14934766292572,0.370804041624069,-0.290668606758118,-0.340449571609497,-1.00522041320801,18,-0.310122728347778,-0.991487503051758,15.75,-0.0946877002716065,0.141620635986328,16.5,-0.0287411212921143,0.143766403198242,19,0.0150325298309326,0,19,"[556, 575, 662, 682, 624, 682, 661, 575, 517, 626, 641, 639, 653, 716, 687, 519, 424, 538, 570, 572, 516, 574, 667, 518, 430, 458, 479, 469, 434, 534, 545, 448, 561, 526, 445, 494, 453, 466, 573, 537, 567, 558, 478, 492, 493, 537, 545, 554, 523, 576, 521, 523, 498, 528, 561, 593, 573, 603, 591, 587, 555, 509, 546, 523, 563, 578, 522, 487, 527, 491, 504, 568, 459, 483, 489, 490, 502, 484, 479, 518, 390, 425, 451, 486, 539, 502, 462, 429, 479, 461, 497, 532, 532, 487, 440, 454, 455, 464, 517, 540, 525, 491, 526, 515, 573, 534, 571, 628, 563, 468, 563, 613, 531, 512, 578, 677, 599, 558, 631, 593, 454, 558, 682, 706, 606, 549, 649, 604, 560, 552, 582, 681, 505, 511, 604, 597, 602, 548, 599, 605, 474, 559, 700, 591, 579, 536, 524, 491, 498, 470, 551, 606, 606, 588, 558, 636, 573, 503, 569, 640, 640, 592, 585, 673, 569, 524, 668, 625, 687, 596, 542, 620, 621, 562, 555, 585, 605, 671, 628, 641, 664, 594, 556, 507, 606, 591, 583, 676, 608, 528, 528, 562, 533, 488, 489, 563, 509, 466, 592, 593, 544, 569, 522, 657, 605, 568, 734, 610, 525, 573, 608, 591, 547, 588, 648, 526, 529, 454, 521, 641, 543, 540, 600, 543, 577, 504, 567, 682, 635, 603, 560, 584, 565, 435, 555, 685, 599, 547, 498, 576, 523, 460, 520, 572, 465, 483, 481, 489, 485, 512, 627, 614, 487, 534, 534, 510, 489, 544, 573, 498, 516, 618, 676, 534, 507, 585, 596, 572, 530, 500, 614, 594, 689, 659, 619, 617, 578, 544, 558, 609, 722, 705, 607, 617, 553, 590, 579, 676, 668, 537, 495, 560, 546, 487, 505, 629, 595, 493, 499, 560, 459, 458, 552, 585, 583, 512, 510, 565, 513, 554, 547, 547, 633, 652, 597, 531, 572, 590, 611, 602, 515, 569, 629, 567, 578, 612, 541, 488, 553, 502, 491, 574, 609, 539, 560, 565, 523, 543, 572, 577, 614, 547, 499, 530, 619, 624, 631, 576, 652, 620, 443, 552, 562, 663, 662, 555, 532, 575, 570, 559, 642, 667, 590, 564, 567, 590, 593, 605, 658, 575, 555, 630, 610, 575, 650, 684, 667, 641, 539, 615, 650, 556, 544, 599, 580, 677, 608, 457, 534, 595, 584, 543, 548, 656, 631, 489, 497, 552, 614, 527, 521, 507, 519, 544, 546, 505, 508, 517, 619, 543, 564, 638, 626, 524, 544, 659, 648, 710, 613, 613, 682, 628, 576, 586, 605, 725, 661, 565, 665, 694, 534, 503, 687, 665, 576, 627, 732, 701, 583, 571, 675, 617, 534, 590, 589, 599, 528, 518, 573, 597, 550, 569, 556, 542, 538, 506, 605, 587, 705, 705, 486, 578, 688, 661, 632, 606, 671, 616, 532, 677, 702, 716, 830, 1030, 1368, 1089, 677, 844, 1602, 1601, 1240, 2167, 2817, 1793, 798, 1516, 3095, 3006, 1235, 2894, 3546, 1991, 681, 1843, 3720, 3426, 1409, 4191, 4723, 2388, 677, 2585, 5075, 4328, 1140, 4195, 4603, 2255, 700, 2816, 5227, 4219, 550, 1796, 1860, 923, 490, 1210, 2331, 1932, 580, 718, 718, 620, 563, 755, 833, 688, 623, 571, 621, 630, 691, 700, 624, 592, 554, 571, 622, 553, 584, 608, 640, 581, 481, 627, 641, 512, 586, 596, 658, 599, 639, 814, 878, 634, 588, 673, 916, 901, 837, 952, 1105, 871, 699, 726, 1147, 1286, 939, 941, 976, 663, 755, 796, 889, 976, 717, 839, 739, 534, 573, 758, 702, 578, 595, 710, 872, 688, 523, 656, 639, 688, 531, 691, 850, 662, 627, 680, 655, 581, 511, 634, 660, 642, 649, 611, 768, 659, 677, 658, 642, 742, 715, 659, 679, 641, 726, 626, 585, 672, 672, 686, 645, 645, 653, 586, 651, 644, 572, 594, 605, 669, 687, 539, 637, 645, 614, 624, 679, 749, 602, 560, 552, 666, 667, 611, 696, 715, 545, 583, 519, 645, 630, 576, 731, 717, 573, 610, 594, 582, 572, 614, 694, 644, 545, 620, 577, 572, 591, 624, 692, 639, 571, 588, 536, 574, 599, 529, 593, 691, 641, 610, 604, 574, 594, 610, 610, 655, 647, 568, 610, 654, 549, 613, 635, 666, 660, 609, 628, 633, 590, 614, 595, 493, 634, 613, 533, 575, 578, 506, 536, 529, 532, 585, 614, 559, 520, 509, 607, 594, 541, 585, 612, 581, 498, 546, 608, 556, 607, 618, 556, 503, 644, 676, 617, 562, 509, 583, 609, 537, 623, 633, 613, 575, 479, 537, 544, 569, 656, 617, 593, 602, 594, 566, 528, 557, 612, 628, 666, 648, 603, 575, 484, 559, 565, 618, 674, 605, 634, 507, 536, 633, 535, 571, 601, 645, 555, 547, 655, 592, 471, 615, 702, 675, 504, 549, 561, 499, 460, 515, 638, 612, 507, 466, 540, 692, 620, 499, 614, 581, 577, 512, 505, 663, 637, 538, 581, 616, 518, 446, 475, 531, 584, 585, 629, 600, 493, 429, 568, 602, 542, 595, 586, 578, 567, 570, 647, 651, 545, 612, 662, 587, 528, 526, 567, 615, 586, 548, 616, 593, 560, 489, 484, 646, 621, 479, 540, 573, 559, 514, 520, 580, 557, 503, 509, 559, 560, 595, 524, 533, 553, 527, 522, 526, 632, 545, 467, 556, 616, 561, 483, 523, 714, 636, 604, 601, 670, 669, 481, 605, 612, 500, 556, 590, 567, 553, 491, 554, 580, 527, 543, 576, 568, 605, 578, 535, 592, 487, 520, 612, 609, 586, 459, 476, 650, 592, 519, 618, 608, 661, 626, 512, 572, 554, 546, 468, 597, 618, 479, 521, 549, 638, 596, 455, 510, 575, 531, 537, 501, 488, 545, 528, 453, 471, 538, 526, 496, 440, 568, 564, 511, 510, 461, 502, 512, 496, 571, 611, 616, 538, 526, 552, 555, 501, 468, 517, 557, 463, 515, 550, 486, 544, 505, 543, 451, 449, 553, 493, 496, 514, 454, 528, 496, 375, 397, 466, 494, 468, 378, 429, 454, 406, 393, 475, 436, 441, 402, 430, 392, 393, 399, 451, 377, 337, 389, 412, 350, 371, 414, 420, 442, 393, 353, 388, 366, 348, 387, 443, 437, 369, 328, 381, 403, 358, 466, 506, 387, 350, 395, 399, 437, 346, 398, 466]"
0.44824543595314,0.0114331245422363,0.0773244127631187,0.118993192911148,-0.00496293604373932,0.140380173921585,0.0281317979097366,-0.561677575111389,1.31707191467285,21.75,-0.260554909706116,0.898075103759766,17.25,0.205505728721619,0.207853317260742,20.75,0.207365393638611,-0.0725269317626953,20.25,0.22853696346283,0.0690937042236328,16.75,"[611, 634, 680, 672, 673, 677, 679, 631, 552, 638, 608, 646, 628, 569, 633, 589, 488, 542, 546, 513, 517, 568, 522, 465, 576, 539, 463, 415, 446, 523, 538, 508, 514, 503, 396, 435, 504, 434, 426, 502, 588, 499, 461, 517, 549, 471, 479, 597, 616, 552, 453, 526, 546, 478, 528, 562, 632, 569, 611, 583, 563, 638, 647, 615, 615, 552, 512, 468, 537, 649, 595, 552, 648, 607, 619, 549, 550, 578, 606, 667, 460, 513, 500, 489, 493, 483, 552, 504, 475, 499, 521, 573, 574, 510, 561, 515, 469, 610, 522, 451, 507, 510, 495, 446, 493, 530, 537, 501, 593, 582, 483, 523, 512, 526, 563, 585, 586, 566, 553, 545, 489, 502, 519, 581, 621, 587, 534, 465, 615, 622, 650, 635, 543, 565, 595, 618, 811, 928, 827, 685, 606, 641, 673, 669, 569, 707, 722, 675, 600, 596, 612, 564, 480, 557, 557, 541, 564, 554, 581, 565, 561, 652, 597, 516, 542, 591, 604, 547, 576, 701, 688, 575, 615, 704, 579, 542, 523, 665, 676, 574, 608, 739, 665, 475, 531, 558, 575, 516, 576, 665, 627, 478, 594, 577, 535, 520, 547, 534, 575, 628, 701, 686, 604, 559, 569, 557, 526, 652, 725, 639, 592, 538, 607, 573, 574, 678, 574, 539, 548, 491, 515, 582, 602, 576, 658, 517, 540, 569, 560, 531, 473, 570, 622, 599, 613, 569, 521, 521, 522, 590, 499, 590, 568, 499, 467, 479, 525, 501, 529, 584, 594, 596, 500, 569, 629, 550, 560, 473, 570, 594, 510, 551, 592, 579, 590, 514, 500, 603, 635, 543, 469, 597, 515, 563, 526, 643, 702, 597, 522, 539, 514, 520, 523, 619, 658, 520, 548, 526, 453, 601, 557, 517, 533, 462, 520, 459, 557, 674, 593, 486, 508, 509, 580, 528, 628, 600, 519, 560, 566, 560, 597, 620, 563, 533, 486, 504, 500, 518, 515, 593, 521, 541, 501, 460, 486, 468, 417, 480, 648, 656, 583, 607, 639, 622, 555, 606, 574, 639, 592, 610, 625, 602, 541, 530, 491, 649, 720, 632, 598, 602, 580, 516, 518, 519, 523, 536, 616, 518, 543, 580, 623, 531, 586, 557, 527, 508, 515, 617, 618, 546, 551, 635, 611, 521, 531, 611, 710, 655, 676, 622, 579, 557, 489, 622, 633, 685, 709, 654, 568, 557, 512, 578, 555, 641, 667, 699, 634, 685, 640, 581, 597, 623, 658, 627, 580, 627, 619, 589, 570, 556, 619, 615, 535, 500, 616, 643, 543, 558, 615, 541, 493, 512, 581, 634, 694, 535, 524, 566, 570, 609, 595, 740, 683, 497, 541, 585, 534, 499, 588, 723, 636, 570, 639, 664, 578, 547, 707, 744, 619, 584, 538, 592, 615, 624, 693, 634, 683, 518, 548, 664, 656, 572, 557, 664, 845, 827, 1097, 931, 742, 737, 1126, 1228, 1772, 2724, 4302, 2979, 1240, 1895, 4527, 4683, 1946, 4471, 6768, 4379, 1441, 3258, 7410, 7214, 2117, 3172, 3902, 2762, 1343, 2903, 4539, 4292, 3092, 5389, 6143, 3180, 1326, 3584, 5809, 5265, 3024, 6443, 6981, 3194, 1371, 3943, 7074, 6127, 1390, 3372, 3444, 1435, 828, 1915, 3380, 2755, 641, 1147, 1156, 763, 614, 742, 1157, 1050, 552, 693, 713, 638, 620, 577, 691, 674, 465, 557, 651, 620, 506, 519, 593, 540, 612, 579, 576, 622, 642, 655, 648, 497, 796, 585, 695, 725, 700, 643, 770, 930, 854, 1741, 1799, 1131, 800, 1356, 2078, 1613, 1035, 2366, 2256, 1228, 780, 1548, 2455, 1699, 670, 1533, 1597, 1007, 567, 788, 1474, 1164, 604, 879, 1066, 869, 558, 428, 632, 745, 589, 647, 877, 856, 623, 587, 575, 691, 647, 573, 703, 715, 592, 613, 653, 770, 679, 612, 675, 632, 527, 638, 607, 691, 656, 661, 715, 677, 582, 739, 726, 660, 700, 727, 816, 751, 621, 860, 851, 598, 950, 1109, 1199, 1127, 776, 978, 1155, 849, 1002, 1251, 1056, 986, 760, 1057, 1246, 721, 895, 959, 837, 817, 704, 904, 939, 724, 725, 677, 664, 696, 644, 701, 640, 596, 562, 534, 565, 676, 585, 612, 682, 510, 495, 619, 658, 632, 558, 500, 542, 453, 665, 732, 728, 635, 713, 674, 511, 602, 652, 687, 621, 540, 627, 707, 584, 570, 585, 633, 607, 564, 589, 615, 571, 522, 509, 541, 612, 573, 554, 548, 495, 514, 544, 652, 617, 575, 574, 519, 580, 611, 558, 581, 476, 492, 541, 486, 587, 558, 568, 582, 516, 573, 556, 496, 575, 551, 626, 577, 528, 646, 651, 555, 532, 583, 679, 641, 550, 624, 571, 490, 502, 616, 684, 675, 656, 672, 632, 607, 631, 617, 650, 650, 718, 674, 592, 564, 564, 615, 609, 473, 499, 538, 525, 565, 496, 604, 541, 505, 470, 484, 523, 580, 503, 530, 675, 591, 579, 597, 552, 556, 512, 596, 571, 565, 570, 663, 585, 522, 491, 529, 528, 532, 516, 567, 521, 494, 559, 550, 626, 612, 511, 558, 580, 573, 585, 579, 570, 560, 525, 466, 512, 577, 535, 530, 568, 511, 579, 571, 536, 526, 486, 559, 488, 502, 539, 525, 489, 479, 466, 499, 544, 535, 553, 555, 528, 552, 597, 583, 594, 622, 629, 567, 572, 703, 661, 519, 556, 621, 685, 605, 571, 670, 656, 591, 657, 609, 619, 648, 641, 530, 586, 632, 531, 587, 624, 596, 597, 613, 548, 608, 537, 535, 651, 547, 505, 540, 537, 648, 583, 557, 610, 475, 580, 608, 547, 618, 489, 518, 559, 456, 539, 587, 519, 542, 607, 496, 527, 559, 550, 571, 563, 624, 593, 548, 469, 533, 552, 544, 620, 670, 578, 555, 607, 595, 546, 616, 644, 690, 586, 589, 631, 610, 580, 545, 594, 594, 705, 692, 676, 574, 526, 564, 669, 718, 598, 571, 634, 582, 531, 596, 707, 720, 481, 520, 583, 518, 516, 623, 619, 582, 522, 448, 380, 440, 454, 469, 429, 467, 455, 500, 455, 506, 497, 513, 521, 409, 415, 503, 451, 449, 494, 498, 520, 463, 431, 459, 463, 467, 417, 441, 426, 445, 471, 434, 362, 355, 431, 398, 328, 419, 469, 491, 409, 382, 455, 519, 406, 406, 416, 403, 428, 391, 392, 377, 345, 371, 479, 467, 426, 394, 361, 377, 417, 438]"
0.513752341270447,-0.0746640563011169,0.105833113193512,-0.0345608592033386,-0.197677940130234,0.18011038005352,-0.193967252969742,-0.155377507209778,0.287389755249023,20.5,-0.133633732795715,0.558757781982422,17.25,0.0374554395675659,0.289821624755859,20,0.116276621818542,0,18.5,0.138020396232605,0.292539596557617,15.5,"[482, 561, 649, 595, 530, 592, 650, 564, 538, 556, 655, 606, 551, 653, 676, 579, 534, 583, 513, 509, 505, 602, 607, 504, 516, 570, 568, 548, 436, 467, 558, 547, 480, 537, 514, 526, 520, 477, 462, 414, 444, 540, 546, 473, 496, 511, 470, 450, 418, 459, 447, 424, 488, 522, 498, 450, 516, 524, 479, 491, 539, 481, 479, 508, 524, 496, 514, 573, 571, 504, 494, 556, 565, 552, 581, 622, 600, 517, 555, 559, 588, 531, 475, 525, 567, 519, 543, 560, 588, 502, 505, 570, 561, 533, 488, 538, 552, 518, 566, 607, 527, 477, 559, 569, 517, 592, 591, 550, 498, 534, 577, 532, 512, 476, 550, 595, 512, 459, 560, 563, 608, 518, 580, 642, 534, 488, 493, 583, 622, 638, 610, 594, 556, 575, 528, 509, 573, 597, 639, 635, 599, 539, 571, 610, 475, 569, 576, 537, 562, 513, 531, 530, 532, 586, 578, 538, 615, 613, 545, 536, 436, 524, 580, 569, 605, 573, 515, 453, 470, 486, 564, 622, 592, 508, 555, 559, 491, 538, 505, 467, 499, 558, 507, 451, 573, 638, 556, 464, 542, 579, 472, 471, 555, 508, 519, 557, 591, 570, 520, 543, 581, 472, 529, 629, 670, 596, 554, 600, 631, 547, 475, 573, 633, 531, 540, 623, 602, 605, 528, 629, 659, 542, 632, 651, 590, 538, 509, 567, 509, 457, 544, 605, 587, 624, 629, 661, 569, 536, 619, 631, 610, 475, 536, 552, 509, 454, 431, 578, 618, 536, 573, 607, 504, 504, 517, 609, 586, 464, 465, 593, 487, 445, 442, 495, 549, 661, 585, 524, 560, 594, 546, 519, 605, 561, 486, 538, 568, 466, 499, 626, 650, 570, 577, 654, 609, 470, 528, 679, 566, 451, 549, 614, 554, 455, 528, 592, 581, 540, 499, 595, 573, 497, 523, 536, 578, 535, 593, 625, 549, 493, 556, 629, 570, 524, 539, 602, 632, 631, 572, 547, 544, 474, 510, 575, 573, 503, 464, 513, 588, 515, 541, 597, 582, 545, 537, 584, 587, 543, 483, 544, 578, 577, 496, 566, 570, 561, 511, 601, 652, 648, 479, 471, 586, 590, 541, 543, 525, 584, 552, 477, 553, 616, 646, 604, 593, 606, 576, 542, 573, 576, 609, 573, 563, 638, 610, 552, 563, 583, 605, 524, 543, 631, 639, 592, 576, 553, 519, 536, 567, 595, 504, 482, 640, 637, 553, 634, 704, 591, 539, 567, 649, 616, 589, 715, 710, 612, 531, 495, 570, 656, 561, 643, 660, 630, 671, 533, 551, 652, 598, 518, 583, 589, 623, 590, 627, 654, 620, 541, 527, 588, 551, 544, 603, 533, 505, 577, 589, 591, 520, 532, 506, 452, 443, 602, 594, 519, 588, 570, 537, 495, 528, 674, 639, 543, 616, 610, 642, 571, 590, 641, 671, 627, 549, 618, 806, 615, 693, 666, 666, 598, 668, 904, 1353, 1448, 1315, 967, 770, 709, 863, 1141, 1578, 4274, 4025, 1870, 840, 2362, 3793, 2294, 2409, 3975, 4034, 1837, 1290, 2836, 4913, 4304, 3136, 3336, 4117, 2550, 1852, 1806, 4450, 5879, 2007, 4388, 5486, 2951, 1528, 2549, 6136, 6175, 988, 2576, 2985, 1616, 933, 1759, 3737, 3320, 685, 1238, 1322, 970, 683, 943, 1605, 1383, 551, 803, 951, 811, 539, 716, 950, 799, 504, 652, 707, 592, 449, 524, 742, 625, 576, 538, 573, 543, 439, 458, 569, 650, 839, 765, 637, 637, 678, 597, 628, 765, 1651, 2048, 1551, 907, 872, 1342, 1445, 1056, 2832, 2732, 2494, 1807, 1205, 2048, 2798, 2385, 2892, 2871, 4077, 2956, 1314, 2013, 4335, 4302, 1878, 2406, 3415, 2302, 994, 1582, 3572, 3627, 1020, 1043, 1428, 1156, 731, 907, 1651, 1712, 712, 779, 979, 851, 611, 628, 752, 892, 651, 743, 831, 726, 517, 609, 761, 755, 775, 1077, 936, 681, 669, 865, 1088, 888, 840, 1085, 914, 679, 633, 793, 1039, 876, 777, 638, 775, 879, 676, 667, 795, 757, 934, 1052, 1288, 1178, 750, 836, 1021, 940, 1019, 1145, 1137, 1037, 798, 856, 913, 787, 848, 833, 595, 593, 730, 728, 609, 586, 630, 755, 661, 506, 575, 616, 678, 600, 714, 675, 619, 567, 549, 600, 669, 675, 628, 640, 732, 691, 624, 681, 686, 715, 686, 835, 735, 615, 694, 681, 675, 664, 766, 996, 935, 654, 511, 624, 717, 665, 727, 852, 764, 591, 583, 664, 635, 576, 685, 653, 672, 615, 614, 652, 618, 622, 697, 629, 686, 684, 628, 774, 664, 605, 591, 633, 651, 637, 636, 718, 643, 595, 622, 644, 561, 621, 628, 608, 622, 580, 604, 586, 555, 585, 579, 513, 614, 651, 587, 635, 636, 668, 572, 632, 614, 524, 609, 576, 591, 654, 628, 569, 565, 578, 631, 524, 517, 569, 582, 525, 516, 609, 623, 578, 491, 561, 600, 631, 603, 563, 553, 587, 587, 551, 588, 691, 705, 651, 542, 579, 622, 557, 525, 638, 580, 507, 549, 578, 568, 471, 540, 626, 618, 561, 626, 644, 509, 544, 654, 679, 547, 449, 741, 737, 648, 664, 697, 746, 692, 686, 845, 820, 708, 718, 774, 801, 642, 677, 763, 818, 772, 728, 634, 652, 653, 636, 790, 730, 700, 804, 700, 649, 694, 699, 584, 643, 617, 646, 602, 564, 619, 645, 561, 596, 641, 612, 581, 564, 634, 755, 584, 578, 636, 583, 619, 754, 835, 804, 656, 526, 653, 606, 556, 651, 665, 783, 570, 636, 733, 589, 462, 555, 713, 709, 565, 685, 820, 670, 504, 514, 758, 789, 715, 685, 699, 581, 506, 586, 809, 860, 727, 616, 695, 567, 568, 662, 833, 899, 669, 611, 705, 619, 630, 625, 748, 868, 559, 647, 714, 567, 570, 718, 721, 727, 544, 604, 550, 411, 539, 580, 521, 511, 637, 563, 449, 468, 477, 516, 514, 562, 785, 666, 669, 695, 562, 431, 619, 817, 742, 632, 732, 742, 540, 486, 711, 850, 485, 576, 618, 520, 469, 541, 768, 706, 531, 650, 528, 377, 453, 614, 656, 531, 539, 522, 469, 513, 457, 468, 515, 555, 513, 510, 503, 495, 401, 420, 459, 472, 464, 422, 452, 501, 431, 427, 516, 505, 418, 452, 376, 410, 464, 447, 359, 339, 403, 424, 401, 360, 389, 439, 437, 397, 423, 333, 399, 425, 377, 362, 390, 450]"
0.458989918231964,-0.302088588476181,0.238148972392082,-0.151497304439545,-0.472399890422821,0.304380595684052,-0.297587066888809,-0.152341961860657,0.759029388427734,19.25,-0.0211640596389771,0.556039810180664,22.75,0.0373438596725464,0.351333618164063,21.75,0.0439242124557495,0.214290618896484,19.75,0.10815417766571,0.144767761230469,17,"[667, 602, 629, 600, 486, 601, 630, 600, 637, 562, 616, 612, 540, 659, 672, 605, 567, 572, 608, 580, 471, 560, 632, 574, 516, 591, 553, 450, 488, 526, 517, 479, 486, 521, 559, 466, 473, 474, 482, 504, 474, 548, 558, 477, 460, 487, 529, 550, 572, 592, 569, 539, 613, 583, 585, 570, 477, 491, 514, 574, 557, 502, 493, 484, 468, 482, 468, 482, 473, 506, 543, 485, 449, 486, 576, 580, 561, 529, 599, 519, 486, 529, 619, 602, 488, 490, 623, 591, 451, 498, 613, 600, 558, 467, 537, 575, 421, 480, 555, 517, 469, 488, 481, 481, 529, 612, 538, 475, 543, 552, 458, 433, 617, 646, 594, 586, 567, 479, 530, 577, 652, 505, 556, 720, 611, 450, 457, 581, 489, 545, 543, 624, 618, 493, 514, 526, 613, 619, 563, 540, 598, 652, 637, 611, 595, 563, 570, 562, 578, 659, 651, 633, 560, 473, 523, 553, 560, 584, 571, 573, 508, 489, 536, 500, 484, 593, 525, 524, 489, 462, 555, 566, 473, 512, 621, 609, 456, 491, 588, 576, 519, 603, 680, 505, 527, 595, 649, 553, 552, 652, 673, 567, 522, 546, 613, 581, 477, 437, 482, 504, 534, 611, 598, 521, 541, 516, 491, 537, 468, 573, 554, 492, 475, 433, 438, 435, 463, 530, 568, 485, 439, 506, 504, 442, 419, 567, 602, 472, 439, 526, 552, 488, 514, 536, 530, 573, 513, 541, 559, 592, 595, 574, 537, 564, 519, 562, 625, 547, 612, 579, 541, 587, 611, 656, 595, 577, 508, 473, 446, 531, 575, 558, 542, 480, 499, 518, 577, 516, 481, 540, 590, 539, 553, 486, 524, 571, 534, 568, 612, 566, 524, 533, 622, 565, 507, 589, 641, 601, 534, 540, 591, 598, 577, 581, 658, 627, 611, 622, 602, 559, 559, 633, 657, 571, 612, 632, 650, 594, 621, 566, 647, 654, 639, 711, 726, 604, 649, 620, 649, 709, 633, 668, 565, 508, 509, 533, 594, 590, 684, 727, 659, 546, 528, 589, 653, 545, 645, 691, 667, 548, 586, 664, 580, 595, 650, 698, 600, 509, 576, 569, 539, 609, 572, 599, 563, 451, 617, 636, 649, 573, 561, 627, 446, 516, 597, 583, 625, 580, 636, 637, 487, 607, 562, 573, 689, 594, 672, 661, 492, 541, 604, 621, 600, 502, 569, 646, 599, 546, 518, 518, 593, 549, 575, 657, 722, 624, 555, 582, 660, 600, 519, 663, 633, 562, 559, 607, 730, 555, 498, 591, 555, 510, 534, 593, 679, 593, 503, 551, 473, 388, 442, 497, 553, 568, 529, 520, 582, 528, 508, 533, 618, 611, 536, 534, 648, 616, 555, 508, 571, 601, 582, 608, 692, 602, 573, 612, 655, 574, 532, 526, 613, 558, 441, 544, 594, 600, 527, 590, 664, 547, 467, 602, 644, 603, 986, 1361, 1764, 1204, 746, 1184, 1939, 1893, 1055, 4288, 5326, 2992, 942, 2935, 5668, 4863, 1869, 7023, 8096, 4388, 1016, 4727, 8598, 6773, 3625, 6595, 7234, 4232, 1645, 4494, 7763, 6464, 2627, 4523, 5343, 3362, 1379, 3165, 6147, 5526, 1333, 4007, 4847, 2806, 926, 2883, 5603, 4702, 933, 2734, 2940, 1662, 801, 1984, 3349, 2568, 867, 1379, 1245, 814, 713, 1034, 1213, 940, 747, 971, 892, 588, 581, 706, 759, 687, 628, 895, 859, 651, 600, 643, 722, 599, 630, 647, 665, 657, 722, 687, 630, 633, 833, 807, 678, 724, 717, 678, 643, 603, 1305, 1485, 1197, 910, 732, 754, 826, 898, 1932, 1568, 1932, 1689, 1289, 1274, 1114, 1921, 1885, 1807, 2437, 2139, 1608, 2004, 1818, 2313, 1161, 2060, 2256, 1406, 1097, 1686, 2013, 1657, 1067, 1525, 1788, 1166, 771, 1112, 1803, 1723, 863, 1212, 1391, 944, 731, 886, 1448, 1367, 668, 815, 832, 681, 645, 690, 779, 768, 724, 684, 752, 748, 628, 616, 645, 688, 732, 955, 928, 797, 665, 766, 795, 694, 751, 1114, 946, 749, 624, 933, 1054, 679, 839, 1113, 1022, 990, 649, 1136, 1349, 738, 884, 832, 907, 976, 678, 900, 962, 713, 798, 752, 760, 724, 721, 696, 605, 691, 622, 750, 704, 637, 729, 696, 622, 612, 616, 606, 566, 695, 740, 613, 648, 626, 561, 556, 548, 650, 661, 672, 595, 575, 616, 633, 529, 528, 567, 652, 623, 539, 631, 588, 615, 614, 646, 553, 673, 703, 608, 650, 641, 692, 612, 586, 745, 671, 714, 690, 620, 711, 702, 675, 641, 552, 617, 548, 525, 664, 671, 674, 590, 569, 555, 580, 594, 619, 564, 506, 503, 559, 611, 647, 647, 677, 619, 578, 545, 530, 698, 636, 534, 615, 658, 619, 525, 614, 502, 556, 576, 525, 511, 624, 619, 567, 469, 528, 616, 534, 538, 553, 584, 524, 586, 575, 552, 589, 524, 532, 494, 474, 600, 586, 561, 584, 630, 541, 541, 578, 582, 517, 553, 579, 551, 508, 522, 610, 633, 570, 625, 655, 651, 554, 584, 688, 561, 478, 504, 624, 558, 511, 557, 566, 587, 510, 587, 642, 598, 588, 581, 566, 556, 574, 615, 599, 629, 623, 627, 465, 514, 553, 551, 533, 574, 595, 534, 433, 529, 579, 628, 593, 496, 548, 548, 482, 662, 598, 608, 594, 541, 613, 543, 621, 647, 630, 523, 588, 549, 593, 500, 584, 624, 533, 585, 628, 583, 510, 542, 619, 613, 558, 598, 613, 566, 556, 558, 664, 467, 605, 714, 639, 555, 567, 590, 590, 537, 548, 610, 664, 708, 652, 580, 641, 618, 584, 628, 570, 641, 610, 528, 689, 581, 627, 678, 591, 599, 663, 610, 620, 657, 536, 637, 637, 546, 526, 583, 638, 545, 535, 580, 582, 494, 566, 658, 638, 447, 592, 608, 582, 522, 565, 802, 667, 592, 686, 595, 498, 498, 708, 846, 671, 556, 578, 511, 473, 489, 597, 730, 677, 484, 619, 661, 459, 490, 554, 748, 726, 511, 610, 660, 468, 478, 496, 661, 652, 507, 559, 610, 505, 419, 464, 546, 538, 503, 579, 578, 547, 494, 520, 541, 467, 502, 471, 488, 525, 440, 443, 520, 548, 534, 558, 509, 517, 465, 477, 549, 510, 464, 515, 479, 379, 398, 414, 474, 495, 434, 393, 489, 435, 387, 415, 495, 530, 567, 472, 477, 487, 403, 368, 338, 506, 470, 429, 413, 397, 369, 436, 354, 381]"
0.322912871837616,-0.335024952888489,0.253979474306107,-0.427204728126526,-0.490566790103912,0.236613512039185,-0.564993143081665,-0.138419508934021,-0.693225860595703,15.5,-0.119822859764099,-0.86517333984375,17.25,-0.00480973720550537,0.216579437255859,17.75,0.0176492929458618,0.277090072631836,16,0.0539842844009399,0.218439102172852,19.5,"[684, 646, 545, 565, 687, 567, 548, 649, 565, 513, 524, 616, 689, 577, 587, 650, 522, 485, 486, 553, 521, 530, 534, 518, 473, 459, 529, 472, 400, 442, 467, 443, 512, 463, 516, 518, 453, 483, 490, 480, 569, 613, 598, 596, 628, 596, 557, 550, 526, 516, 474, 634, 625, 459, 489, 524, 488, 492, 525, 552, 472, 389, 587, 570, 432, 506, 567, 490, 378, 441, 630, 562, 416, 510, 550, 457, 487, 520, 531, 480, 524, 514, 581, 572, 578, 531, 493, 532, 524, 573, 558, 533, 631, 655, 579, 493, 480, 562, 514, 493, 522, 592, 587, 517, 536, 605, 535, 486, 557, 543, 541, 539, 552, 599, 525, 468, 500, 561, 595, 504, 545, 577, 478, 418, 493, 608, 589, 518, 507, 522, 479, 516, 521, 596, 606, 565, 465, 497, 558, 493, 479, 511, 595, 578, 502, 540, 565, 451, 552, 549, 596, 623, 553, 517, 538, 510, 512, 556, 533, 524, 558, 546, 529, 574, 622, 552, 457, 529, 603, 605, 624, 636, 658, 713, 650, 561, 569, 548, 601, 617, 535, 576, 590, 534, 610, 515, 496, 535, 531, 540, 547, 593, 582, 482, 413, 444, 552, 518, 445, 516, 623, 550, 445, 483, 560, 557, 412, 529, 591, 562, 554, 491, 586, 616, 551, 603, 541, 586, 580, 566, 627, 577, 539, 582, 511, 538, 586, 512, 636, 596, 539, 581, 614, 570, 548, 516, 526, 541, 517, 548, 616, 552, 563, 583, 623, 573, 502, 629, 628, 623, 594, 665, 623, 550, 517, 557, 564, 660, 552, 513, 541, 508, 547, 511, 553, 580, 523, 451, 511, 546, 502, 467, 562, 485, 475, 479, 482, 490, 484, 503, 541, 485, 569, 557, 502, 552, 616, 643, 543, 564, 572, 529, 552, 578, 560, 532, 577, 560, 505, 553, 642, 610, 539, 514, 510, 605, 617, 592, 552, 577, 522, 490, 608, 638, 569, 552, 567, 583, 536, 535, 529, 611, 595, 553, 552, 502, 547, 603, 618, 672, 630, 542, 530, 631, 648, 600, 568, 611, 580, 531, 526, 688, 680, 548, 629, 658, 523, 557, 510, 611, 576, 560, 594, 529, 482, 552, 530, 532, 518, 547, 602, 607, 530, 586, 690, 661, 524, 586, 599, 649, 686, 660, 697, 642, 603, 559, 687, 651, 584, 570, 589, 574, 603, 663, 584, 623, 512, 501, 547, 549, 565, 515, 548, 612, 587, 474, 551, 631, 580, 515, 521, 532, 506, 484, 552, 520, 578, 576, 567, 584, 571, 545, 613, 553, 576, 593, 470, 564, 534, 448, 490, 514, 539, 464, 544, 650, 584, 495, 542, 530, 517, 582, 586, 652, 679, 609, 572, 605, 611, 594, 568, 577, 631, 528, 609, 648, 603, 567, 608, 543, 475, 535, 511, 561, 619, 589, 619, 639, 708, 621, 484, 630, 735, 680, 890, 1332, 1622, 1137, 756, 946, 1609, 1520, 830, 2587, 3027, 1798, 830, 1811, 3166, 2553, 845, 2994, 3471, 1983, 673, 2071, 3552, 2751, 776, 2597, 3009, 1699, 652, 1605, 2880, 2307, 1651, 3524, 4264, 2414, 1113, 2177, 4600, 4376, 1623, 4992, 6053, 3303, 1113, 3358, 6905, 6107, 1133, 4117, 4368, 2069, 680, 2775, 4875, 3703, 1009, 2434, 2373, 1174, 685, 1455, 2234, 1578, 831, 2043, 2352, 1471, 691, 1117, 1879, 1640, 1046, 2963, 3305, 1904, 807, 1577, 2886, 2464, 768, 2099, 2320, 1304, 704, 1268, 2119, 1780, 794, 1471, 1467, 788, 680, 921, 1311, 1078, 1309, 2685, 2468, 1073, 934, 1413, 1933, 1252, 1725, 2909, 2351, 1004, 1066, 1907, 2265, 1121, 1649, 1944, 1365, 1023, 1003, 1650, 1596, 929, 1225, 1621, 1370, 970, 839, 1279, 1371, 995, 739, 835, 742, 576, 556, 783, 887, 732, 643, 615, 695, 665, 611, 657, 684, 698, 727, 729, 726, 744, 676, 661, 730, 703, 745, 767, 765, 752, 670, 755, 728, 623, 688, 779, 769, 655, 717, 774, 763, 774, 662, 791, 700, 752, 644, 783, 971, 753, 780, 761, 617, 765, 620, 643, 845, 685, 578, 798, 664, 561, 581, 622, 813, 670, 579, 699, 723, 558, 521, 568, 757, 695, 656, 694, 583, 555, 530, 685, 666, 561, 569, 663, 605, 623, 628, 647, 693, 606, 604, 569, 639, 675, 654, 619, 659, 649, 678, 630, 646, 680, 689, 649, 624, 691, 622, 621, 597, 541, 569, 600, 623, 657, 574, 679, 574, 522, 534, 534, 567, 503, 560, 677, 622, 601, 561, 510, 650, 615, 580, 603, 668, 609, 495, 526, 601, 596, 683, 667, 572, 594, 607, 617, 606, 559, 606, 567, 596, 630, 607, 537, 584, 619, 625, 581, 630, 719, 683, 588, 606, 670, 660, 606, 512, 581, 622, 714, 671, 661, 587, 603, 546, 554, 617, 580, 553, 534, 553, 617, 549, 580, 656, 634, 578, 579, 542, 534, 582, 555, 575, 638, 603, 578, 567, 586, 580, 587, 563, 548, 521, 554, 581, 661, 666, 637, 630, 652, 661, 636, 525, 563, 507, 535, 604, 575, 581, 574, 471, 510, 578, 582, 542, 500, 526, 526, 586, 559, 571, 585, 575, 556, 522, 537, 566, 617, 559, 553, 621, 642, 625, 562, 523, 533, 474, 468, 514, 577, 581, 540, 590, 519, 530, 564, 476, 501, 556, 600, 617, 543, 511, 553, 466, 476, 556, 559, 608, 667, 519, 547, 554, 542, 511, 474, 653, 677, 523, 524, 563, 592, 539, 505, 541, 580, 566, 518, 642, 612, 546, 537, 552, 558, 665, 652, 632, 612, 655, 652, 607, 643, 621, 623, 615, 577, 652, 627, 590, 566, 570, 538, 498, 483, 610, 635, 573, 536, 529, 540, 488, 499, 536, 580, 689, 568, 540, 602, 585, 536, 600, 635, 656, 659, 557, 559, 542, 592, 680, 650, 606, 673, 602, 563, 542, 612, 658, 550, 523, 659, 669, 557, 520, 490, 644, 626, 550, 591, 665, 486, 558, 545, 649, 727, 509, 624, 591, 480, 423, 485, 671, 649, 362, 445, 383, 378, 352, 397, 500, 484, 461, 460, 405, 386, 460, 450, 434, 433, 454, 471, 419, 417, 491, 535, 463, 419, 424, 514, 446, 385, 407, 490, 479, 401, 368, 452, 379, 327, 397, 461, 480, 406, 469, 462, 421, 430, 382, 464, 534, 526, 365, 403, 412, 409, 438, 443, 439, 409, 372, 402, 451, 430, 405, 417, 413, 412]"
0.732361972332001,0.308041960000992,-0.316208600997925,0.519640982151032,0.392762243747711,-0.277514338493347,0.46734282374382,-0.374542713165283,1.09705924987793,15.75,-0.301872730255127,0.973892211914063,17.75,0.0334391593933106,0.564479827880859,19,0.246442317962646,0.431013107299805,18,0.382483959197998,0.363636016845703,17.25,"[377, 455, 577, 552, 427, 552, 576, 459, 390, 509, 566, 486, 475, 540, 607, 457, 525, 608, 567, 519, 522, 605, 597, 504, 524, 526, 562, 526, 513, 582, 532, 498, 520, 519, 527, 513, 543, 540, 460, 451, 536, 506, 493, 503, 496, 512, 484, 426, 452, 513, 457, 471, 407, 408, 491, 410, 481, 521, 465, 533, 572, 410, 472, 502, 374, 361, 395, 461, 444, 347, 397, 421, 414, 399, 506, 496, 392, 403, 423, 473, 527, 509, 540, 507, 512, 561, 548, 587, 598, 604, 590, 529, 600, 691, 674, 655, 482, 458, 494, 446, 447, 537, 523, 454, 513, 489, 493, 512, 471, 558, 529, 511, 458, 503, 552, 489, 452, 476, 525, 513, 492, 570, 635, 592, 541, 570, 596, 601, 610, 625, 543, 544, 500, 544, 597, 538, 743, 876, 661, 558, 634, 743, 748, 590, 827, 851, 608, 667, 718, 583, 602, 653, 590, 551, 584, 598, 594, 539, 544, 600, 525, 590, 560, 515, 511, 502, 574, 509, 654, 663, 629, 594, 603, 572, 642, 661, 614, 582, 552, 606, 678, 578, 527, 590, 577, 638, 624, 569, 574, 554, 528, 522, 559, 578, 608, 528, 521, 461, 487, 554, 656, 546, 539, 464, 617, 611, 567, 595, 631, 581, 511, 468, 608, 725, 628, 557, 631, 591, 545, 542, 558, 570, 526, 508, 501, 517, 563, 541, 476, 585, 552, 554, 618, 557, 496, 489, 561, 612, 527, 613, 499, 538, 550, 531, 564, 599, 552, 557, 503, 600, 614, 556, 524, 566, 497, 459, 517, 529, 524, 469, 471, 551, 548, 517, 480, 476, 452, 485, 510, 612, 647, 528, 470, 423, 508, 481, 451, 598, 612, 536, 555, 496, 511, 506, 544, 581, 520, 485, 605, 456, 466, 542, 532, 524, 455, 559, 591, 565, 459, 548, 559, 496, 448, 537, 521, 523, 497, 521, 578, 523, 516, 567, 523, 536, 497, 500, 572, 580, 495, 522, 558, 581, 600, 487, 539, 637, 517, 428, 581, 641, 641, 593, 544, 635, 568, 511, 509, 613, 562, 511, 544, 631, 684, 550, 563, 607, 541, 639, 634, 647, 721, 548, 555, 547, 560, 623, 541, 548, 676, 568, 599, 564, 596, 546, 503, 494, 542, 593, 624, 596, 610, 624, 637, 555, 576, 664, 541, 654, 663, 600, 568, 571, 652, 631, 522, 658, 658, 471, 594, 652, 616, 570, 621, 750, 656, 594, 691, 648, 614, 559, 603, 614, 562, 582, 624, 581, 620, 581, 510, 615, 609, 616, 645, 627, 576, 483, 598, 646, 646, 617, 623, 619, 582, 572, 553, 598, 670, 615, 530, 527, 568, 584, 575, 698, 738, 553, 503, 618, 545, 504, 604, 652, 599, 567, 632, 609, 585, 560, 576, 599, 506, 477, 586, 632, 589, 566, 706, 889, 1026, 795, 536, 772, 952, 882, 1205, 1547, 2250, 1621, 826, 1026, 2078, 2283, 1729, 1353, 2588, 1868, 1095, 961, 2840, 3437, 2565, 1384, 2578, 2101, 1685, 1197, 3341, 4257, 2714, 1816, 3132, 2500, 1881, 1670, 4271, 4959, 1634, 2706, 3996, 2672, 1437, 2140, 4911, 4812, 1354, 4492, 5503, 3291, 1064, 3118, 5865, 4911, 1170, 3833, 4251, 2306, 669, 2726, 4549, 3468, 846, 1519, 1502, 960, 649, 1195, 1831, 1355, 580, 712, 806, 638, 609, 685, 698, 709, 599, 819, 792, 629, 666, 760, 763, 619, 605, 741, 661, 612, 699, 656, 577, 505, 619, 739, 813, 696, 586, 672, 893, 905, 713, 1246, 1195, 681, 669, 911, 1254, 972, 939, 1060, 1227, 1105, 851, 1102, 1043, 894, 2028, 3304, 3207, 2219, 1423, 2353, 2319, 2018, 1921, 3537, 3447, 2114, 1380, 2512, 2538, 1915, 806, 1612, 1796, 1086, 732, 1224, 1358, 1027, 755, 1035, 956, 771, 745, 647, 696, 681, 770, 811, 799, 817, 734, 552, 593, 690, 713, 632, 685, 744, 658, 717, 679, 675, 867, 1004, 819, 677, 625, 716, 901, 778, 845, 970, 841, 770, 676, 711, 833, 770, 851, 1030, 979, 702, 665, 702, 660, 626, 1018, 1559, 1344, 735, 719, 824, 916, 690, 749, 1191, 1152, 692, 691, 701, 763, 689, 592, 712, 738, 648, 651, 697, 703, 602, 656, 593, 674, 637, 570, 625, 582, 629, 641, 683, 675, 619, 598, 631, 641, 642, 695, 788, 685, 550, 562, 655, 610, 527, 658, 677, 562, 583, 599, 631, 620, 569, 658, 684, 540, 563, 580, 595, 553, 598, 704, 590, 552, 672, 647, 562, 572, 692, 688, 593, 515, 620, 610, 575, 630, 608, 597, 568, 612, 618, 562, 655, 788, 659, 637, 542, 702, 707, 591, 654, 638, 608, 638, 604, 654, 681, 601, 669, 618, 525, 563, 454, 584, 659, 559, 541, 595, 566, 570, 552, 681, 728, 603, 583, 592, 617, 571, 593, 599, 640, 547, 505, 506, 497, 494, 540, 692, 733, 498, 468, 562, 536, 513, 566, 579, 604, 493, 521, 567, 504, 589, 560, 516, 486, 511, 533, 521, 555, 559, 517, 569, 513, 464, 553, 476, 506, 658, 594, 574, 595, 563, 550, 633, 654, 648, 618, 626, 630, 631, 589, 649, 633, 651, 562, 577, 712, 661, 529, 564, 698, 606, 484, 462, 615, 581, 435, 534, 673, 548, 565, 631, 613, 571, 520, 579, 648, 539, 658, 641, 543, 516, 591, 586, 462, 590, 604, 581, 565, 516, 501, 528, 536, 650, 612, 514, 593, 574, 502, 557, 606, 629, 566, 652, 747, 581, 549, 586, 606, 647, 508, 645, 727, 636, 668, 659, 657, 679, 570, 581, 666, 634, 610, 602, 622, 532, 555, 602, 583, 551, 564, 615, 546, 523, 507, 568, 656, 575, 541, 558, 586, 537, 514, 554, 607, 496, 438, 489, 543, 560, 617, 548, 507, 473, 512, 558, 499, 533, 510, 534, 550, 489, 544, 518, 553, 489, 451, 575, 614, 552, 475, 600, 632, 467, 493, 554, 525, 540, 557, 572, 527, 464, 485, 570, 505, 462, 458, 443, 448, 457, 403, 467, 488, 468, 415, 433, 472, 482, 496, 496, 475, 513, 477, 446, 519, 462, 413, 401, 449, 477, 455, 410, 476, 390, 447, 467, 404, 386, 417, 401, 384, 405, 443, 463, 436, 388, 413, 394, 312, 398, 349, 459, 456, 370, 429, 448, 378, 369, 360, 387, 414, 341, 356, 394, 349, 389, 385, 360, 379, 404, 370, 383, 400]"
0.590354681015015,0.0901837348937988,0.0655292868614197,0.14021497964859,0.00668305158615112,0.253360986709595,-0.000485360622406006,-0.0547541379928589,0.957298278808594,17.25,0.163541913032532,-0.273370742797852,18,0.182567715644836,-0.413131713867188,15.75,0.284563183784485,0,20.75,0.314031720161438,-0.0728130340576172,21.5,"[667, 673, 561, 604, 720, 602, 565, 674, 578, 603, 625, 635, 672, 636, 606, 665, 533, 546, 609, 579, 559, 667, 572, 488, 559, 539, 527, 560, 567, 596, 549, 555, 628, 524, 559, 577, 566, 529, 558, 713, 590, 545, 588, 558, 507, 521, 561, 679, 565, 486, 503, 478, 539, 505, 449, 566, 639, 577, 434, 517, 552, 473, 498, 558, 552, 543, 441, 436, 470, 546, 529, 530, 458, 527, 617, 508, 417, 449, 452, 485, 509, 507, 487, 449, 442, 416, 398, 450, 509, 542, 575, 512, 434, 552, 516, 384, 373, 492, 535, 493, 429, 489, 571, 493, 488, 538, 586, 527, 548, 552, 571, 590, 511, 533, 517, 492, 519, 463, 473, 495, 546, 511, 560, 509, 514, 507, 535, 596, 493, 540, 514, 500, 442, 444, 525, 490, 583, 618, 542, 549, 512, 503, 608, 526, 612, 613, 569, 499, 608, 565, 609, 639, 597, 548, 504, 531, 551, 547, 531, 594, 602, 607, 543, 494, 513, 540, 552, 597, 741, 689, 511, 509, 598, 616, 573, 583, 624, 634, 509, 475, 526, 630, 613, 548, 554, 531, 533, 510, 411, 511, 595, 555, 494, 540, 590, 582, 508, 530, 618, 579, 583, 642, 578, 619, 669, 596, 620, 575, 579, 575, 560, 585, 586, 483, 513, 559, 567, 577, 559, 466, 541, 531, 604, 611, 543, 535, 505, 531, 519, 552, 535, 546, 585, 580, 520, 575, 566, 588, 483, 504, 450, 548, 543, 576, 559, 539, 559, 454, 509, 552, 541, 489, 584, 589, 483, 511, 513, 546, 430, 530, 586, 533, 487, 440, 500, 588, 555, 541, 446, 516, 515, 364, 608, 650, 617, 631, 549, 516, 590, 523, 637, 499, 492, 621, 568, 480, 545, 631, 496, 443, 488, 560, 486, 504, 485, 488, 536, 466, 531, 597, 512, 497, 514, 502, 553, 529, 492, 561, 610, 562, 506, 501, 537, 533, 574, 573, 550, 631, 564, 569, 472, 559, 530, 473, 567, 658, 666, 568, 519, 568, 556, 551, 560, 671, 648, 525, 537, 590, 547, 508, 562, 573, 586, 557, 581, 571, 638, 663, 554, 611, 618, 606, 677, 566, 594, 604, 613, 608, 511, 588, 634, 621, 654, 556, 600, 703, 558, 568, 623, 581, 541, 504, 514, 603, 528, 528, 634, 631, 463, 575, 577, 538, 508, 546, 685, 645, 490, 606, 646, 513, 529, 574, 754, 715, 510, 670, 661, 572, 628, 594, 601, 567, 463, 617, 515, 395, 549, 566, 497, 529, 515, 617, 537, 498, 594, 533, 569, 617, 627, 571, 572, 575, 541, 538, 650, 634, 665, 634, 601, 626, 677, 644, 578, 688, 624, 518, 545, 620, 651, 533, 605, 607, 527, 540, 588, 511, 500, 591, 566, 573, 571, 572, 558, 520, 563, 651, 778, 723, 708, 644, 619, 639, 804, 874, 1125, 2028, 2513, 1584, 785, 1366, 2508, 2380, 882, 3699, 4375, 2630, 792, 2557, 4302, 3301, 1461, 3080, 3366, 2054, 1047, 2282, 3587, 2834, 1203, 1959, 2027, 1428, 805, 1687, 2021, 1511, 2114, 5548, 6281, 3233, 1126, 3689, 6680, 5655, 2513, 8759, 9596, 4684, 1243, 5623, 10214, 8108, 1617, 6051, 6353, 2997, 790, 3995, 6847, 4998, 948, 2270, 2262, 1232, 703, 1555, 2500, 1810, 690, 828, 693, 714, 606, 615, 725, 669, 645, 668, 645, 748, 699, 593, 647, 617, 592, 638, 603, 673, 596, 511, 642, 700, 647, 840, 810, 635, 600, 752, 818, 758, 1203, 1869, 1605, 830, 842, 1694, 1836, 1058, 2155, 2382, 2264, 1578, 1614, 2944, 2644, 1418, 2656, 3348, 3441, 2447, 2090, 3621, 3173, 2123, 1605, 2683, 2742, 1860, 1336, 2352, 2264, 1592, 651, 1164, 1276, 822, 554, 750, 946, 750, 718, 747, 748, 606, 555, 634, 619, 633, 696, 750, 659, 607, 644, 603, 587, 624, 783, 792, 621, 621, 768, 726, 609, 625, 898, 874, 615, 642, 712, 700, 674, 577, 887, 897, 696, 742, 605, 752, 743, 644, 692, 595, 681, 682, 588, 685, 616, 629, 727, 899, 816, 664, 726, 716, 684, 676, 639, 767, 762, 697, 677, 640, 623, 549, 549, 541, 689, 647, 601, 690, 677, 649, 635, 604, 651, 592, 561, 643, 701, 703, 689, 723, 723, 640, 568, 687, 687, 753, 530, 592, 603, 546, 588, 610, 582, 557, 524, 612, 558, 558, 534, 581, 636, 526, 505, 544, 694, 638, 534, 661, 712, 622, 540, 555, 677, 652, 486, 574, 658, 595, 621, 629, 635, 642, 570, 505, 596, 587, 640, 548, 569, 574, 647, 623, 494, 648, 616, 470, 514, 475, 515, 515, 481, 630, 662, 585, 616, 542, 461, 487, 588, 676, 720, 607, 632, 571, 596, 547, 626, 759, 557, 572, 575, 521, 559, 615, 590, 584, 440, 447, 528, 461, 435, 491, 564, 548, 497, 582, 593, 489, 580, 550, 535, 553, 623, 643, 614, 580, 569, 535, 485, 535, 558, 543, 661, 625, 534, 571, 575, 568, 492, 534, 682, 571, 523, 619, 579, 523, 529, 628, 702, 589, 542, 551, 598, 607, 598, 633, 577, 592, 577, 539, 592, 581, 504, 576, 542, 534, 508, 491, 510, 517, 593, 551, 490, 533, 510, 543, 589, 588, 558, 562, 635, 598, 536, 653, 733, 681, 583, 622, 685, 620, 546, 673, 699, 702, 601, 636, 693, 691, 563, 541, 593, 642, 486, 666, 676, 549, 495, 484, 637, 651, 604, 585, 605, 658, 602, 581, 680, 731, 593, 588, 695, 601, 593, 574, 580, 666, 571, 601, 649, 623, 632, 546, 468, 585, 646, 593, 587, 657, 670, 504, 461, 545, 664, 680, 566, 589, 629, 561, 498, 496, 534, 566, 502, 514, 605, 553, 523, 541, 602, 544, 573, 556, 605, 572, 555, 635, 613, 473, 556, 502, 482, 531, 544, 601, 579, 534, 679, 608, 530, 557, 702, 699, 636, 626, 686, 662, 591, 566, 681, 770, 496, 414, 525, 592, 481, 418, 527, 624, 458, 437, 555, 535, 449, 437, 504, 568, 502, 510, 514, 503, 474, 498, 525, 547, 442, 425, 508, 479, 399, 395, 436, 511, 441, 399, 485, 466, 460, 402, 440, 536, 431, 458, 446, 434, 373, 332, 378, 441, 471, 482, 501, 486, 442, 436, 460, 517, 412, 368, 389, 407, 470, 483, 436, 436, 397, 413, 404, 424, 432, 436, 424, 400]"
0.60089898109436,0.035869549959898,0.113493986427784,0.134521529078484,-0.0690698772668839,0.286602735519409,-0.00741110881790519,-0.346182584762573,1.24411582946777,19.5,-0.139902830123901,0.638723373413086,17,-0.081251859664917,0.687217712402344,18.5,0.0851166248321533,0.50511360168457,23.75,0.264502763748169,0.144767761230469,22,"[668, 642, 620, 647, 737, 644, 618, 643, 605, 639, 643, 605, 634, 652, 653, 645, 527, 563, 637, 558, 544, 665, 586, 527, 431, 455, 473, 444, 523, 601, 529, 445, 441, 448, 444, 419, 459, 503, 504, 476, 534, 478, 499, 553, 561, 528, 544, 591, 553, 500, 435, 435, 558, 523, 397, 530, 437, 463, 557, 534, 526, 545, 509, 522, 484, 431, 480, 485, 535, 521, 545, 533, 491, 525, 540, 495, 490, 513, 590, 529, 619, 601, 569, 541, 547, 548, 570, 577, 550, 573, 558, 509, 519, 562, 547, 569, 540, 539, 605, 581, 515, 520, 508, 584, 527, 602, 580, 593, 493, 457, 559, 511, 535, 557, 582, 597, 598, 530, 483, 517, 485, 573, 618, 549, 490, 511, 528, 515, 784, 924, 673, 515, 552, 582, 625, 484, 860, 1098, 794, 552, 560, 657, 753, 568, 657, 828, 691, 580, 643, 727, 753, 604, 467, 562, 688, 604, 568, 605, 569, 505, 602, 661, 694, 624, 558, 707, 698, 576, 841, 861, 720, 654, 879, 1131, 930, 642, 776, 812, 730, 591, 934, 1228, 953, 520, 661, 713, 684, 577, 720, 920, 857, 637, 509, 585, 626, 562, 569, 684, 641, 594, 546, 604, 568, 513, 482, 566, 667, 596, 553, 621, 602, 552, 565, 681, 669, 562, 539, 522, 577, 573, 545, 538, 534, 535, 558, 495, 511, 511, 433, 448, 604, 606, 619, 602, 528, 541, 511, 553, 682, 645, 633, 611, 472, 550, 643, 561, 602, 570, 616, 609, 507, 547, 606, 637, 542, 493, 534, 496, 525, 533, 528, 537, 585, 567, 503, 524, 564, 498, 530, 575, 524, 522, 529, 505, 497, 519, 485, 501, 530, 543, 513, 492, 541, 575, 512, 542, 562, 528, 578, 578, 553, 503, 590, 638, 571, 549, 522, 553, 619, 627, 640, 612, 576, 597, 486, 544, 573, 532, 517, 485, 569, 564, 577, 549, 489, 564, 581, 562, 595, 586, 533, 479, 554, 564, 544, 495, 540, 593, 582, 454, 511, 666, 658, 521, 539, 558, 510, 519, 557, 610, 575, 544, 556, 570, 528, 495, 560, 623, 626, 593, 672, 627, 504, 490, 540, 639, 586, 593, 651, 647, 666, 623, 675, 652, 621, 648, 708, 707, 569, 579, 730, 639, 572, 589, 713, 684, 590, 582, 646, 608, 618, 638, 636, 676, 444, 480, 622, 579, 581, 510, 463, 541, 521, 543, 540, 579, 532, 538, 570, 533, 520, 549, 492, 501, 450, 532, 544, 486, 575, 571, 570, 606, 553, 517, 582, 535, 564, 612, 628, 574, 552, 529, 604, 580, 587, 580, 667, 569, 530, 534, 573, 618, 547, 597, 604, 541, 560, 556, 555, 553, 597, 602, 605, 645, 593, 538, 569, 565, 499, 488, 547, 603, 562, 467, 597, 656, 535, 615, 541, 602, 571, 532, 592, 564, 1054, 1144, 1430, 1103, 727, 827, 1505, 1639, 1904, 3508, 4802, 3135, 1192, 2053, 4671, 4688, 932, 4274, 5456, 3215, 823, 2625, 5250, 4613, 2099, 2254, 2951, 1850, 1372, 1308, 3345, 4021, 2885, 5919, 8239, 5124, 1916, 3834, 9013, 8946, 1685, 6922, 8134, 4384, 1166, 4638, 8862, 7393, 1161, 4337, 4463, 2102, 540, 2870, 4700, 3283, 783, 2085, 2102, 1076, 621, 1414, 2080, 1429, 515, 870, 861, 685, 587, 734, 932, 817, 594, 720, 656, 557, 502, 615, 764, 662, 573, 746, 722, 560, 560, 587, 642, 530, 823, 834, 818, 710, 715, 708, 657, 730, 1643, 2278, 1935, 1070, 1078, 1666, 1474, 1044, 1861, 3282, 3152, 1611, 1252, 1989, 2065, 1377, 957, 2070, 2122, 1219, 953, 1094, 1247, 1030, 561, 761, 819, 660, 636, 657, 675, 603, 527, 579, 677, 593, 498, 608, 653, 642, 894, 1031, 982, 780, 588, 749, 847, 777, 1148, 1622, 1470, 956, 712, 922, 1054, 821, 792, 1086, 1125, 880, 639, 685, 690, 701, 570, 702, 858, 779, 670, 641, 572, 604, 686, 682, 776, 702, 636, 779, 655, 565, 621, 669, 653, 654, 629, 758, 705, 587, 696, 626, 696, 764, 689, 739, 778, 692, 769, 601, 632, 748, 666, 650, 628, 723, 570, 528, 624, 648, 633, 640, 646, 605, 610, 618, 637, 581, 606, 627, 626, 622, 663, 651, 633, 622, 661, 738, 690, 633, 606, 561, 559, 566, 629, 656, 614, 589, 551, 616, 647, 520, 470, 513, 475, 545, 561, 714, 740, 590, 516, 606, 633, 590, 553, 592, 646, 638, 599, 596, 621, 579, 641, 648, 520, 546, 651, 666, 529, 523, 548, 527, 583, 613, 484, 455, 586, 604, 601, 517, 596, 642, 528, 567, 584, 565, 698, 572, 627, 743, 720, 673, 590, 694, 595, 544, 516, 662, 698, 563, 442, 529, 506, 599, 624, 508, 544, 609, 581, 561, 473, 595, 596, 430, 510, 581, 560, 523, 492, 578, 608, 513, 519, 493, 542, 540, 565, 614, 608, 602, 573, 585, 538, 497, 638, 586, 532, 604, 605, 593, 533, 553, 572, 566, 545, 487, 523, 537, 506, 565, 623, 547, 683, 661, 503, 554, 563, 609, 562, 578, 631, 541, 446, 588, 606, 483, 636, 500, 504, 577, 538, 552, 598, 603, 576, 505, 491, 559, 533, 488, 592, 611, 636, 530, 533, 548, 513, 505, 537, 549, 663, 722, 699, 603, 537, 519, 561, 641, 574, 665, 620, 551, 510, 480, 566, 570, 538, 552, 545, 514, 523, 465, 436, 459, 564, 548, 593, 604, 602, 561, 459, 512, 513, 559, 547, 525, 539, 572, 545, 491, 516, 636, 699, 636, 578, 640, 740, 650, 585, 617, 591, 566, 599, 637, 626, 641, 609, 602, 577, 475, 556, 613, 641, 613, 533, 611, 714, 610, 508, 571, 641, 634, 461, 580, 659, 588, 596, 655, 633, 564, 537, 567, 567, 580, 674, 692, 597, 487, 493, 545, 512, 484, 513, 491, 389, 467, 591, 472, 431, 496, 542, 509, 492, 633, 551, 527, 505, 569, 569, 552, 505, 526, 488, 453, 493, 500, 434, 395, 462, 493, 421, 443, 563, 524, 395, 377, 478, 522, 465, 505, 486, 465, 435, 425, 427, 403, 475, 505, 474, 448, 446, 581, 562, 508, 475, 557, 471, 435, 423, 463, 465, 425, 471, 459, 471, 458, 386, 458, 502, 448, 408, 436, 448, 453, 430, 429, 472, 441, 417, 455, 499, 511, 443, 427, 507, 457]"
0.616100609302521,-0.014454236254096,0.163363546133041,0.137511372566223,-0.131887003779411,0.315216541290283,-0.00538446567952633,-0.145003080368042,0.138330459594727,16.5,-0.0721900463104248,-0.282096862792969,17.25,0.0625641345977783,0.800657272338867,18.5,0.168278932571411,0.72026252746582,17.75,0.256255388259888,-0.290679931640625,17.25,"[689, 638, 587, 608, 642, 606, 587, 641, 612, 550, 592, 689, 643, 567, 588, 660, 575, 498, 602, 617, 588, 581, 496, 543, 457, 465, 480, 517, 468, 448, 463, 494, 471, 528, 514, 534, 501, 524, 535, 468, 472, 543, 518, 562, 492, 494, 580, 498, 567, 559, 406, 580, 541, 494, 515, 492, 514, 521, 560, 518, 535, 568, 581, 504, 530, 511, 526, 557, 533, 560, 580, 552, 538, 581, 485, 501, 528, 535, 507, 497, 455, 523, 493, 529, 609, 585, 582, 556, 551, 481, 472, 456, 535, 564, 497, 540, 541, 572, 492, 473, 558, 534, 559, 537, 580, 553, 451, 529, 632, 553, 571, 503, 484, 592, 616, 640, 675, 632, 622, 563, 604, 556, 532, 574, 641, 560, 515, 562, 685, 631, 565, 576, 594, 520, 434, 542, 629, 722, 668, 559, 637, 581, 653, 679, 522, 579, 619, 643, 627, 576, 567, 602, 516, 511, 661, 679, 534, 568, 563, 572, 514, 546, 594, 569, 493, 513, 537, 486, 460, 588, 670, 656, 617, 575, 576, 529, 570, 624, 649, 570, 589, 542, 581, 599, 689, 612, 578, 594, 563, 615, 636, 642, 622, 524, 537, 559, 572, 660, 636, 605, 564, 629, 609, 560, 606, 715, 661, 544, 473, 615, 616, 556, 550, 503, 548, 491, 549, 519, 472, 511, 542, 486, 540, 554, 503, 448, 448, 520, 501, 483, 527, 508, 497, 536, 615, 549, 443, 593, 637, 529, 588, 666, 658, 539, 542, 633, 635, 544, 595, 572, 596, 529, 533, 562, 616, 632, 613, 546, 554, 491, 531, 520, 556, 676, 503, 529, 551, 437, 549, 523, 535, 597, 538, 548, 500, 487, 563, 484, 517, 564, 415, 513, 514, 503, 485, 481, 568, 486, 448, 475, 532, 561, 616, 553, 518, 501, 566, 519, 520, 549, 551, 570, 562, 599, 599, 541, 558, 589, 570, 512, 528, 631, 518, 566, 575, 531, 499, 504, 549, 580, 502, 583, 608, 492, 479, 506, 555, 546, 588, 679, 606, 469, 552, 637, 555, 473, 566, 604, 632, 613, 630, 629, 621, 534, 575, 616, 594, 615, 537, 606, 640, 533, 514, 570, 577, 576, 546, 593, 638, 519, 507, 643, 707, 618, 607, 691, 644, 579, 537, 575, 655, 627, 548, 535, 559, 645, 573, 646, 654, 667, 610, 563, 661, 686, 599, 659, 666, 628, 593, 581, 637, 640, 589, 630, 676, 571, 610, 611, 730, 724, 595, 573, 653, 572, 589, 562, 629, 683, 566, 594, 601, 542, 475, 605, 664, 599, 575, 565, 599, 578, 528, 530, 549, 572, 565, 544, 544, 585, 559, 556, 546, 520, 528, 553, 502, 528, 535, 542, 513, 490, 556, 522, 520, 607, 571, 551, 540, 597, 521, 544, 538, 535, 566, 528, 443, 537, 539, 583, 604, 567, 550, 486, 493, 525, 628, 708, 809, 672, 498, 543, 714, 738, 1904, 2235, 2809, 1990, 990, 1397, 2485, 2763, 3378, 4062, 4393, 2734, 1471, 2226, 3611, 4003, 2915, 4094, 3641, 1843, 1228, 2074, 2442, 2042, 1413, 4289, 4517, 2424, 708, 2482, 4173, 2887, 1199, 3432, 4242, 2440, 1031, 2371, 4627, 4032, 1341, 2637, 3706, 2366, 1032, 2033, 4182, 4015, 905, 1899, 2592, 1652, 765, 1350, 2674, 2569, 560, 1363, 1599, 1033, 540, 870, 1554, 1397, 581, 862, 995, 763, 625, 667, 826, 802, 732, 647, 652, 644, 701, 603, 520, 688, 843, 901, 729, 686, 694, 723, 695, 652, 1348, 1706, 1219, 760, 899, 1158, 1096, 666, 1461, 2085, 1594, 799, 924, 1283, 1291, 703, 882, 1337, 1153, 675, 613, 739, 737, 513, 587, 831, 868, 645, 479, 621, 659, 571, 492, 599, 733, 619, 534, 629, 674, 665, 607, 700, 683, 597, 613, 623, 583, 635, 732, 749, 720, 608, 671, 691, 637, 771, 678, 819, 817, 600, 660, 727, 755, 736, 554, 674, 742, 678, 646, 741, 725, 627, 1036, 1021, 853, 877, 734, 973, 975, 751, 1258, 1198, 877, 1106, 906, 1079, 1129, 880, 1015, 925, 924, 1036, 814, 968, 949, 856, 604, 720, 884, 738, 594, 746, 683, 623, 585, 641, 595, 616, 741, 672, 576, 475, 577, 584, 600, 652, 612, 650, 605, 525, 589, 666, 750, 743, 592, 591, 630, 580, 545, 619, 645, 587, 541, 577, 570, 525, 527, 682, 717, 474, 472, 569, 574, 565, 507, 637, 665, 573, 582, 540, 619, 644, 554, 540, 662, 748, 611, 583, 703, 719, 639, 490, 632, 736, 593, 578, 689, 699, 621, 620, 640, 723, 516, 576, 697, 680, 537, 554, 566, 590, 516, 513, 576, 508, 633, 623, 631, 560, 591, 518, 594, 670, 677, 675, 580, 556, 665, 649, 553, 584, 577, 569, 508, 572, 608, 641, 559, 563, 540, 453, 547, 599, 543, 496, 507, 596, 628, 564, 642, 648, 615, 602, 623, 709, 607, 535, 646, 644, 622, 645, 658, 641, 614, 578, 658, 610, 521, 613, 666, 632, 678, 636, 613, 608, 600, 544, 572, 597, 647, 695, 623, 601, 602, 608, 588, 548, 658, 673, 665, 664, 746, 608, 557, 616, 600, 570, 655, 673, 657, 596, 554, 602, 535, 632, 726, 648, 642, 623, 581, 613, 506, 557, 732, 699, 595, 557, 512, 552, 521, 557, 604, 605, 579, 542, 532, 498, 483, 533, 588, 617, 633, 571, 520, 542, 522, 558, 623, 576, 569, 572, 553, 568, 575, 581, 662, 554, 564, 630, 614, 623, 585, 538, 642, 638, 570, 536, 582, 684, 628, 620, 649, 635, 569, 590, 708, 720, 546, 569, 622, 580, 559, 555, 592, 611, 558, 537, 523, 497, 557, 598, 528, 543, 558, 570, 535, 500, 519, 600, 578, 564, 552, 650, 569, 506, 442, 579, 701, 605, 626, 616, 529, 527, 492, 540, 613, 586, 604, 554, 605, 717, 662, 583, 655, 682, 508, 488, 560, 630, 579, 487, 565, 544, 451, 439, 522, 561, 612, 546, 465, 460, 399, 451, 585, 527, 501, 516, 423, 426, 440, 503, 588, 462, 427, 520, 453, 478, 417, 449, 515, 386, 397, 455, 510, 519, 385, 421, 458, 389, 416, 479, 425, 430, 420, 430, 438, 425, 426, 430, 374, 401, 443, 453, 449, 450, 354, 423, 451, 433, 366, 368, 460, 436, 401, 370, 401, 447, 462, 393, 417, 386, 365, 404, 394, 487]"
0.558343410491943,0.00732173025608063,0.211796700954437,-0.030796691775322,-0.0924092084169388,0.330499142408371,-0.195862606167793,-0.200029611587524,0.70037841796875,18.75,-0.0084841251373291,0.422000885009766,20.75,0.0443017482757568,-0.0713825225830078,20.5,0.0826394557952881,-0.0733852386474609,15.75,0.222114324569702,-0.14033317565918,18.75,"[658, 665, 625, 577, 610, 576, 627, 662, 613, 683, 659, 631, 618, 578, 616, 622, 535, 613, 635, 621, 591, 551, 544, 548, 481, 513, 484, 492, 468, 506, 582, 520, 515, 552, 492, 430, 447, 527, 553, 535, 553, 637, 547, 435, 505, 654, 573, 465, 526, 577, 548, 496, 513, 520, 497, 475, 544, 590, 610, 549, 520, 576, 561, 487, 485, 479, 591, 559, 432, 486, 544, 523, 403, 573, 590, 514, 455, 464, 561, 493, 522, 577, 568, 505, 485, 441, 431, 502, 602, 606, 589, 589, 560, 511, 444, 567, 544, 540, 508, 497, 543, 559, 565, 545, 641, 583, 527, 578, 577, 523, 546, 593, 594, 546, 574, 561, 487, 579, 563, 594, 529, 506, 499, 443, 502, 578, 653, 612, 713, 771, 580, 579, 651, 701, 721, 604, 889, 1027, 684, 574, 654, 750, 748, 548, 688, 704, 486, 549, 569, 607, 624, 472, 581, 571, 552, 572, 459, 515, 581, 547, 569, 609, 594, 537, 614, 648, 542, 567, 612, 740, 639, 531, 787, 949, 730, 493, 520, 598, 603, 447, 567, 805, 719, 577, 593, 564, 616, 550, 547, 714, 772, 641, 629, 633, 610, 576, 608, 636, 638, 616, 639, 652, 626, 544, 542, 599, 620, 607, 552, 609, 549, 511, 527, 556, 502, 493, 550, 571, 547, 547, 561, 543, 531, 526, 522, 642, 611, 542, 493, 456, 484, 486, 583, 505, 562, 528, 515, 499, 558, 589, 501, 555, 587, 499, 450, 520, 527, 491, 478, 542, 525, 447, 478, 557, 565, 556, 485, 551, 552, 479, 502, 564, 599, 531, 519, 520, 545, 547, 537, 539, 539, 525, 532, 574, 604, 585, 497, 501, 516, 538, 553, 514, 528, 550, 560, 543, 503, 554, 499, 550, 561, 501, 541, 526, 498, 501, 541, 570, 523, 551, 578, 562, 487, 522, 472, 553, 621, 677, 648, 605, 605, 562, 413, 524, 581, 580, 542, 513, 565, 496, 515, 489, 481, 565, 561, 541, 524, 506, 592, 564, 549, 624, 633, 625, 585, 503, 524, 644, 618, 579, 555, 556, 544, 492, 629, 639, 518, 474, 543, 606, 482, 468, 601, 616, 460, 501, 629, 611, 516, 516, 568, 571, 568, 601, 607, 540, 557, 610, 632, 570, 552, 596, 614, 512, 584, 661, 615, 656, 543, 652, 691, 583, 728, 722, 586, 621, 530, 534, 601, 543, 599, 592, 637, 627, 530, 513, 620, 673, 600, 611, 694, 609, 557, 532, 606, 659, 586, 575, 565, 544, 555, 590, 523, 557, 577, 540, 574, 547, 586, 587, 540, 538, 557, 630, 616, 519, 608, 685, 686, 574, 594, 684, 606, 588, 657, 680, 672, 618, 598, 644, 656, 598, 594, 722, 675, 660, 619, 639, 571, 577, 593, 607, 604, 637, 599, 542, 576, 581, 576, 556, 592, 630, 613, 549, 594, 468, 476, 585, 573, 555, 527, 599, 1180, 1121, 1545, 1159, 736, 857, 1515, 1763, 3039, 3795, 5039, 3321, 1342, 2118, 4718, 5283, 4226, 6666, 7399, 4082, 1579, 3317, 6561, 6668, 3134, 6087, 5794, 2514, 1132, 3071, 5167, 4135, 1796, 4280, 4049, 1737, 838, 2118, 3495, 2471, 1756, 3815, 3555, 1492, 991, 1683, 2741, 2045, 1010, 1739, 1671, 975, 736, 764, 1329, 1280, 546, 1000, 1199, 883, 601, 734, 1120, 1059, 639, 745, 838, 790, 675, 656, 848, 829, 642, 661, 667, 688, 660, 675, 746, 678, 589, 650, 622, 587, 612, 653, 683, 661, 1149, 1329, 909, 641, 823, 951, 766, 660, 1030, 1122, 907, 696, 795, 1043, 817, 643, 607, 598, 691, 675, 601, 770, 701, 548, 538, 546, 594, 680, 649, 566, 591, 585, 605, 663, 589, 628, 707, 636, 580, 542, 626, 585, 610, 639, 640, 648, 627, 632, 576, 760, 812, 678, 602, 577, 648, 624, 562, 949, 1051, 711, 577, 606, 795, 676, 547, 775, 1095, 985, 598, 846, 963, 824, 661, 937, 1199, 1145, 653, 838, 1101, 759, 752, 885, 1030, 954, 619, 899, 1005, 682, 675, 732, 738, 711, 604, 667, 658, 595, 670, 768, 681, 638, 616, 585, 629, 587, 615, 729, 816, 712, 615, 600, 601, 653, 561, 580, 737, 744, 609, 533, 551, 598, 643, 641, 718, 656, 601, 652, 650, 711, 737, 714, 683, 634, 701, 735, 684, 633, 630, 667, 633, 491, 565, 586, 566, 602, 623, 672, 624, 466, 461, 521, 564, 574, 605, 644, 668, 607, 517, 594, 677, 631, 666, 641, 624, 649, 603, 599, 650, 617, 682, 664, 647, 638, 660, 601, 548, 642, 664, 712, 577, 518, 548, 546, 462, 556, 574, 737, 645, 459, 529, 578, 493, 451, 524, 606, 626, 547, 516, 524, 483, 464, 595, 605, 654, 622, 523, 609, 601, 535, 683, 623, 617, 521, 547, 566, 538, 636, 709, 699, 581, 473, 539, 616, 602, 590, 558, 575, 588, 516, 443, 516, 595, 561, 541, 571, 595, 526, 511, 491, 597, 613, 602, 656, 592, 594, 638, 518, 527, 621, 532, 608, 569, 497, 564, 519, 501, 586, 597, 522, 591, 630, 623, 569, 562, 631, 592, 566, 554, 563, 501, 468, 531, 578, 510, 580, 616, 564, 440, 484, 610, 577, 597, 628, 816, 746, 626, 643, 742, 744, 543, 607, 758, 660, 536, 628, 712, 665, 602, 601, 687, 549, 500, 593, 561, 554, 558, 615, 594, 617, 600, 624, 571, 479, 694, 692, 625, 709, 738, 597, 585, 604, 633, 621, 633, 642, 636, 560, 590, 671, 554, 552, 596, 556, 570, 628, 624, 564, 558, 540, 569, 485, 525, 550, 467, 487, 558, 540, 566, 538, 524, 541, 538, 575, 542, 664, 728, 660, 627, 619, 620, 605, 521, 583, 772, 681, 608, 606, 582, 546, 566, 640, 765, 690, 521, 576, 654, 615, 691, 747, 654, 608, 483, 623, 745, 682, 578, 636, 634, 553, 490, 613, 840, 737, 520, 482, 560, 508, 475, 504, 768, 781, 503, 453, 496, 508, 445, 376, 543, 609, 482, 444, 384, 449, 447, 481, 465, 450, 442, 490, 448, 369, 408, 507, 517, 423, 450, 545, 518, 401, 439, 493, 426, 346, 409, 459, 475, 476, 506, 467, 416, 410, 449, 455, 484, 502, 487, 457, 429, 433, 401, 402, 342, 413, 389, 400, 429, 363, 402, 385, 421, 456, 404, 443, 482, 399]"
0.371009528636932,-0.0760324150323868,0.369703352451324,-0.392322540283203,-0.129878342151642,0.267694503068924,-0.437480568885803,-0.2082679271698,-0.423002243041992,18,-0.188097715377808,0.734996795654297,15.75,-0.153479337692261,0.0715255737304688,15.75,-0.0908229351043701,-0.800514221191406,18,-0.0444743633270264,0.437164306640625,18.5,"[455, 462, 542, 499, 323, 502, 545, 458, 470, 560, 614, 540, 480, 520, 579, 517, 511, 452, 522, 554, 473, 497, 534, 473, 495, 506, 450, 470, 488, 474, 482, 448, 509, 528, 438, 507, 519, 491, 512, 463, 549, 538, 483, 495, 514, 524, 502, 442, 497, 479, 480, 538, 586, 517, 450, 513, 557, 559, 572, 560, 544, 569, 506, 529, 504, 444, 420, 510, 487, 460, 395, 455, 522, 518, 457, 513, 549, 483, 479, 511, 535, 464, 485, 540, 630, 591, 505, 568, 513, 529, 482, 486, 567, 607, 546, 501, 568, 494, 472, 521, 548, 569, 507, 567, 612, 554, 553, 562, 596, 588, 562, 631, 514, 552, 596, 513, 482, 545, 591, 610, 586, 563, 588, 594, 483, 534, 542, 579, 594, 830, 844, 589, 511, 626, 696, 554, 714, 1157, 1075, 596, 561, 695, 837, 599, 623, 828, 859, 697, 562, 668, 740, 591, 471, 589, 593, 585, 543, 616, 709, 520, 561, 591, 539, 578, 614, 633, 615, 489, 615, 531, 497, 549, 600, 676, 638, 577, 627, 639, 567, 515, 609, 755, 574, 518, 665, 673, 596, 595, 650, 728, 620, 500, 523, 566, 517, 506, 578, 648, 613, 433, 579, 599, 585, 570, 569, 608, 557, 512, 548, 618, 643, 556, 542, 541, 530, 477, 564, 631, 627, 598, 615, 566, 486, 506, 529, 570, 564, 570, 554, 516, 582, 589, 594, 496, 488, 532, 541, 455, 439, 587, 583, 536, 490, 531, 575, 538, 518, 568, 553, 566, 535, 526, 539, 571, 580, 571, 533, 492, 566, 550, 516, 576, 539, 490, 594, 571, 635, 705, 632, 595, 528, 536, 597, 513, 546, 597, 563, 567, 571, 619, 630, 506, 535, 543, 550, 590, 546, 618, 567, 570, 523, 541, 606, 597, 527, 496, 559, 618, 578, 496, 576, 628, 651, 597, 496, 624, 572, 509, 550, 614, 576, 498, 554, 565, 548, 535, 591, 647, 523, 486, 515, 542, 536, 586, 560, 579, 544, 488, 547, 582, 554, 539, 588, 621, 645, 596, 534, 549, 588, 549, 578, 566, 558, 569, 556, 522, 533, 538, 694, 612, 541, 576, 500, 545, 514, 500, 577, 499, 551, 545, 583, 574, 571, 554, 588, 622, 648, 627, 598, 650, 631, 594, 589, 585, 606, 607, 539, 606, 635, 520, 460, 565, 592, 560, 670, 558, 622, 614, 524, 591, 678, 726, 758, 628, 608, 630, 647, 597, 688, 783, 688, 602, 523, 576, 640, 560, 587, 709, 542, 551, 543, 615, 624, 587, 519, 520, 523, 524, 551, 629, 674, 555, 439, 519, 498, 533, 547, 572, 636, 558, 481, 516, 508, 582, 582, 485, 550, 602, 601, 551, 515, 531, 506, 541, 594, 522, 489, 491, 585, 526, 536, 621, 571, 534, 489, 522, 548, 591, 663, 591, 474, 573, 526, 500, 514, 579, 588, 526, 472, 572, 638, 533, 713, 705, 829, 720, 541, 556, 852, 924, 1447, 1926, 2956, 1992, 756, 1282, 2936, 3160, 2011, 2614, 4046, 2705, 984, 1638, 4153, 4579, 1873, 2548, 3236, 2074, 1000, 1422, 2955, 3280, 1729, 3808, 4541, 2501, 1079, 2136, 4402, 4214, 1532, 2459, 3139, 1903, 970, 1548, 3411, 3490, 925, 1398, 1924, 1339, 724, 966, 2065, 2079, 649, 1054, 1265, 874, 574, 771, 1268, 1116, 615, 798, 791, 625, 598, 606, 755, 720, 711, 622, 547, 567, 636, 628, 597, 693, 689, 675, 764, 701, 722, 585, 845, 929, 728, 1424, 1420, 919, 703, 1005, 1551, 1251, 881, 1765, 1735, 1014, 688, 991, 1588, 1197, 774, 2036, 2070, 995, 575, 937, 1545, 1160, 872, 2108, 2107, 1040, 668, 908, 1318, 1035, 802, 1548, 1526, 842, 584, 701, 910, 693, 637, 753, 776, 636, 605, 649, 709, 628, 587, 583, 694, 674, 598, 579, 606, 645, 591, 583, 604, 645, 646, 590, 625, 639, 612, 557, 575, 619, 591, 633, 698, 657, 603, 587, 545, 518, 500, 631, 713, 608, 637, 677, 640, 547, 577, 600, 656, 657, 589, 679, 674, 649, 676, 615, 646, 600, 621, 827, 771, 561, 620, 633, 594, 523, 620, 727, 753, 643, 608, 571, 617, 616, 596, 614, 677, 593, 634, 619, 681, 679, 616, 595, 643, 643, 600, 570, 638, 672, 601, 693, 616, 622, 569, 620, 653, 526, 664, 713, 626, 574, 592, 588, 559, 494, 620, 610, 605, 508, 550, 624, 522, 488, 565, 571, 636, 573, 595, 653, 597, 557, 493, 487, 587, 590, 529, 581, 619, 537, 573, 539, 517, 554, 547, 563, 605, 611, 528, 494, 529, 537, 466, 533, 513, 471, 524, 602, 556, 517, 479, 488, 567, 551, 548, 618, 554, 530, 555, 551, 537, 500, 566, 523, 568, 550, 508, 539, 553, 596, 671, 575, 557, 540, 505, 564, 574, 607, 717, 691, 602, 631, 621, 560, 586, 725, 594, 680, 597, 594, 621, 672, 725, 635, 616, 735, 643, 484, 584, 728, 641, 532, 686, 722, 566, 547, 655, 701, 586, 535, 700, 627, 575, 595, 634, 719, 634, 558, 548, 578, 568, 583, 507, 577, 626, 521, 474, 558, 619, 538, 493, 568, 558, 513, 500, 586, 602, 545, 488, 614, 641, 572, 684, 694, 578, 548, 595, 664, 719, 663, 667, 594, 557, 566, 484, 510, 651, 669, 459, 549, 613, 629, 541, 523, 622, 596, 553, 506, 450, 639, 691, 529, 570, 597, 537, 492, 549, 551, 554, 541, 619, 630, 657, 574, 653, 629, 533, 539, 605, 676, 671, 563, 559, 616, 617, 540, 507, 667, 578, 487, 517, 568, 572, 540, 513, 619, 492, 515, 570, 545, 627, 636, 546, 560, 479, 554, 634, 536, 482, 578, 605, 553, 559, 649, 566, 460, 485, 537, 501, 480, 554, 593, 601, 568, 539, 592, 569, 589, 583, 554, 656, 626, 536, 532, 539, 611, 722, 572, 605, 636, 595, 525, 493, 698, 580, 484, 624, 644, 504, 547, 653, 699, 389, 434, 621, 590, 452, 455, 612, 607, 431, 419, 513, 549, 462, 466, 500, 430, 468, 485, 444, 495, 476, 508, 530, 463, 463, 452, 386, 326, 338, 410, 469, 451, 401, 458, 388, 324, 407, 451, 395, 342, 446, 484, 445, 365, 351, 384, 365, 374, 416, 451, 439, 447, 486, 471, 437, 437, 416, 360, 352, 458, 469, 407, 348, 414]"
0.205146566033363,-0.156062483787537,0.295325696468353,-0.646838009357452,-0.203188344836235,0.0752929449081421,-0.626338005065918,-1.38680148124695,1.80888175964355,15.75,-1.12630534172058,-1.72863006591797,17,-0.409332990646362,-1.1568546295166,16.25,-0.391737699508667,-0.356626510620117,15.25,-0.379006147384644,-0.859737396240234,18,"[475, 568, 612, 501, 479, 497, 611, 569, 525, 532, 462, 558, 636, 531, 553, 555, 464, 513, 486, 485, 592, 547, 511, 473, 430, 593, 591, 546, 526, 452, 522, 497, 396, 502, 530, 462, 493, 525, 501, 460, 441, 483, 531, 462, 472, 506, 528, 493, 544, 431, 457, 509, 493, 522, 501, 506, 540, 534, 509, 514, 472, 441, 466, 517, 564, 524, 454, 504, 495, 495, 467, 549, 599, 531, 547, 542, 569, 524, 526, 653, 515, 520, 426, 397, 516, 489, 456, 469, 469, 466, 509, 450, 443, 460, 432, 464, 490, 482, 522, 497, 442, 486, 404, 439, 508, 563, 652, 624, 498, 566, 601, 544, 595, 558, 568, 547, 491, 551, 562, 506, 575, 608, 605, 528, 555, 577, 627, 603, 837, 1021, 685, 510, 686, 757, 729, 585, 1038, 1279, 908, 614, 621, 878, 872, 576, 795, 851, 673, 522, 499, 745, 779, 653, 585, 555, 558, 484, 494, 560, 589, 602, 656, 648, 551, 512, 580, 697, 595, 519, 755, 896, 748, 605, 717, 1009, 916, 586, 732, 760, 624, 635, 696, 889, 848, 641, 587, 631, 602, 525, 544, 609, 639, 586, 492, 582, 577, 443, 481, 499, 523, 522, 540, 606, 555, 528, 553, 647, 659, 552, 582, 591, 608, 566, 533, 612, 671, 654, 483, 601, 677, 511, 493, 537, 521, 550, 463, 509, 604, 498, 480, 480, 502, 538, 439, 596, 664, 517, 511, 486, 618, 662, 485, 481, 553, 514, 460, 455, 548, 565, 541, 490, 592, 643, 577, 554, 592, 631, 568, 528, 520, 541, 516, 540, 554, 532, 569, 611, 543, 562, 583, 584, 644, 530, 554, 608, 602, 588, 571, 555, 496, 478, 512, 558, 656, 540, 471, 629, 606, 521, 579, 645, 659, 591, 575, 599, 604, 593, 542, 644, 652, 584, 533, 520, 510, 555, 613, 560, 613, 553, 547, 601, 538, 549, 558, 555, 617, 503, 544, 674, 622, 590, 461, 533, 587, 585, 617, 638, 597, 544, 561, 570, 569, 597, 522, 592, 654, 580, 578, 527, 551, 611, 582, 625, 732, 703, 617, 553, 579, 608, 587, 575, 666, 690, 549, 654, 683, 587, 593, 602, 583, 577, 629, 590, 565, 603, 650, 637, 621, 672, 611, 653, 628, 628, 586, 603, 638, 608, 519, 526, 603, 649, 602, 525, 649, 574, 516, 490, 496, 512, 538, 554, 554, 484, 586, 553, 592, 563, 574, 611, 519, 568, 648, 610, 618, 599, 678, 650, 607, 703, 535, 607, 569, 493, 568, 633, 578, 523, 489, 526, 595, 587, 513, 594, 606, 552, 659, 560, 656, 688, 611, 639, 634, 624, 599, 662, 599, 537, 528, 587, 619, 602, 584, 589, 630, 628, 589, 538, 591, 569, 530, 522, 566, 565, 547, 505, 504, 532, 638, 612, 535, 559, 562, 545, 511, 538, 741, 708, 733, 668, 582, 647, 665, 709, 1248, 1622, 1745, 1161, 730, 974, 1514, 1548, 1610, 1861, 1383, 845, 918, 1142, 935, 868, 2205, 1222, 1857, 1340, 1204, 897, 2367, 3383, 2335, 3527, 4224, 1979, 1160, 1959, 4338, 4654, 1535, 3295, 3779, 1835, 714, 1996, 3820, 3484, 950, 1439, 2065, 1547, 584, 1153, 1920, 1889, 808, 1548, 2057, 1426, 602, 1089, 2031, 1855, 601, 875, 1060, 788, 507, 657, 959, 916, 424, 527, 619, 581, 526, 587, 613, 535, 527, 526, 474, 555, 640, 630, 591, 593, 536, 664, 654, 529, 569, 581, 737, 719, 732, 1226, 1358, 976, 699, 845, 1433, 1338, 645, 1575, 1753, 1078, 675, 1128, 1845, 1527, 508, 1127, 1357, 909, 660, 744, 1222, 1087, 567, 940, 1092, 815, 672, 659, 831, 820, 475, 765, 843, 624, 562, 637, 599, 519, 545, 717, 820, 681, 616, 601, 586, 598, 587, 605, 681, 661, 634, 586, 557, 593, 691, 685, 617, 601, 540, 613, 694, 574, 686, 663, 523, 479, 544, 615, 575, 543, 772, 932, 765, 512, 632, 773, 789, 578, 652, 838, 768, 562, 552, 725, 758, 601, 646, 658, 669, 606, 628, 618, 614, 575, 586, 626, 584, 504, 566, 589, 530, 571, 570, 603, 652, 645, 656, 560, 560, 635, 525, 674, 658, 532, 521, 588, 679, 576, 529, 659, 686, 655, 534, 544, 678, 650, 698, 728, 612, 657, 683, 617, 614, 694, 547, 616, 654, 675, 698, 639, 633, 626, 624, 609, 702, 702, 565, 580, 586, 619, 574, 665, 768, 629, 546, 627, 671, 663, 500, 686, 723, 588, 531, 658, 721, 607, 630, 782, 762, 664, 656, 633, 682, 606, 587, 596, 543, 565, 561, 534, 527, 513, 606, 504, 501, 572, 514, 523, 550, 558, 577, 529, 455, 542, 560, 563, 550, 540, 655, 546, 449, 549, 584, 579, 519, 562, 639, 545, 532, 523, 548, 535, 449, 588, 557, 612, 597, 476, 509, 548, 473, 468, 665, 652, 636, 565, 549, 495, 495, 604, 494, 597, 602, 592, 560, 549, 514, 464, 534, 548, 614, 523, 537, 546, 604, 630, 554, 638, 775, 643, 662, 688, 679, 674, 513, 600, 649, 568, 579, 625, 639, 590, 524, 550, 645, 663, 554, 556, 561, 525, 577, 493, 534, 629, 584, 524, 488, 576, 560, 546, 516, 560, 578, 532, 561, 546, 570, 562, 524, 527, 537, 597, 572, 496, 540, 552, 576, 580, 563, 605, 582, 550, 513, 579, 589, 587, 491, 540, 607, 497, 628, 658, 595, 624, 599, 573, 620, 575, 620, 603, 698, 682, 627, 583, 643, 630, 618, 547, 676, 636, 551, 541, 587, 674, 595, 599, 649, 571, 571, 561, 546, 595, 547, 575, 623, 645, 543, 478, 617, 666, 568, 613, 580, 491, 436, 446, 527, 629, 713, 664, 584, 523, 566, 564, 582, 673, 565, 534, 454, 502, 571, 597, 528, 547, 517, 477, 501, 575, 556, 507, 536, 556, 459, 381, 515, 552, 537, 486, 518, 575, 403, 372, 423, 418, 485, 533, 550, 521, 474, 442, 365, 494, 496, 458, 489, 486, 415, 532, 445, 442, 408, 479, 510, 356, 404, 435, 464, 436, 437, 428, 400, 421, 529, 485, 483, 451, 456, 508, 436, 506, 423, 436, 347, 393, 366, 362, 380, 393, 418, 408, 415, 432, 429, 394, 381, 392, 378, 403, 386, 420, 385, 335, 310, 361, 362, 380, 430, 421, 380, 385, 421, 390]"
0.338331460952759,0.00602471828460693,0.0563109219074249,-0.306061267852783,0.014645591378212,-0.249193489551544,-0.207227826118469,-1.04007983207703,1.53636932373047,18.25,-0.241854429244995,0.763320922851563,21.5,-0.204661130905151,0.621700286865234,17.5,0.0744316577911377,-0.207424163818359,17.25,0.0858757495880127,-0.208282470703125,21.5,"[625, 613, 577, 603, 602, 604, 578, 611, 580, 534, 605, 615, 672, 612, 620, 669, 602, 545, 541, 636, 706, 660, 534, 555, 620, 555, 505, 590, 539, 471, 550, 586, 544, 476, 440, 505, 477, 497, 591, 582, 510, 533, 486, 555, 584, 563, 552, 548, 462, 527, 479, 490, 460, 465, 490, 459, 585, 592, 544, 594, 559, 474, 534, 529, 558, 578, 539, 520, 588, 552, 504, 533, 571, 558, 502, 505, 566, 509, 523, 571, 572, 559, 563, 505, 521, 539, 507, 499, 666, 577, 523, 538, 587, 615, 524, 588, 549, 485, 492, 496, 468, 484, 538, 588, 550, 574, 549, 549, 431, 436, 574, 578, 549, 617, 555, 499, 525, 553, 540, 520, 590, 614, 622, 608, 529, 540, 534, 562, 847, 649, 682, 748, 718, 577, 543, 797, 1269, 1035, 575, 761, 891, 725, 484, 820, 1057, 1201, 778, 553, 742, 770, 793, 654, 583, 730, 725, 552, 618, 590, 539, 519, 588, 717, 823, 701, 688, 723, 627, 563, 863, 1100, 928, 634, 749, 980, 926, 660, 758, 944, 816, 552, 554, 730, 772, 565, 719, 777, 710, 624, 673, 712, 732, 777, 723, 639, 574, 651, 739, 733, 723, 708, 690, 644, 607, 664, 743, 832, 699, 577, 604, 626, 660, 534, 621, 700, 679, 577, 568, 581, 586, 575, 604, 645, 639, 599, 556, 509, 546, 555, 647, 619, 555, 576, 530, 470, 514, 588, 574, 598, 560, 510, 558, 531, 538, 604, 563, 558, 599, 568, 543, 523, 620, 561, 572, 553, 483, 545, 540, 583, 608, 566, 595, 598, 542, 543, 529, 579, 638, 536, 574, 583, 532, 585, 529, 561, 662, 601, 569, 604, 624, 648, 602, 564, 634, 571, 519, 592, 687, 659, 506, 449, 519, 545, 504, 500, 505, 568, 515, 559, 559, 536, 527, 433, 525, 536, 589, 519, 546, 591, 581, 502, 569, 600, 583, 564, 478, 541, 666, 660, 548, 578, 602, 471, 485, 530, 647, 644, 469, 549, 629, 616, 573, 596, 704, 690, 523, 582, 599, 559, 560, 541, 671, 685, 616, 634, 595, 620, 552, 491, 669, 641, 580, 610, 599, 629, 591, 505, 554, 590, 542, 562, 626, 661, 730, 593, 571, 649, 583, 565, 677, 610, 533, 541, 574, 556, 440, 577, 713, 663, 510, 664, 645, 581, 543, 495, 579, 530, 496, 524, 476, 540, 546, 518, 576, 578, 583, 570, 567, 552, 583, 562, 587, 647, 565, 536, 583, 652, 595, 498, 654, 664, 674, 612, 669, 711, 471, 550, 604, 564, 621, 533, 553, 644, 465, 523, 594, 622, 599, 525, 552, 588, 568, 549, 645, 538, 624, 592, 601, 601, 698, 707, 673, 506, 515, 607, 586, 567, 566, 659, 583, 512, 510, 558, 569, 536, 539, 562, 522, 512, 574, 612, 620, 607, 577, 556, 804, 822, 1045, 841, 686, 749, 1174, 1179, 1754, 3156, 4248, 2691, 1083, 1903, 4103, 4148, 1994, 4954, 6898, 4252, 1286, 2864, 6581, 6517, 1468, 3387, 5040, 3343, 1150, 1936, 4620, 4719, 1178, 1390, 2247, 1877, 887, 1191, 2154, 2252, 1190, 1395, 1881, 1631, 720, 1240, 1894, 1925, 792, 1101, 1290, 1033, 524, 1048, 1358, 1161, 612, 721, 800, 610, 515, 611, 696, 706, 566, 626, 660, 552, 534, 550, 522, 555, 599, 508, 449, 511, 614, 572, 486, 561, 578, 492, 429, 480, 579, 532, 567, 597, 569, 681, 644, 510, 557, 650, 729, 677, 804, 1406, 1395, 808, 673, 1020, 1393, 1044, 743, 1605, 1765, 1054, 641, 1172, 1810, 1450, 525, 798, 851, 651, 492, 844, 1095, 902, 688, 853, 853, 660, 565, 710, 621, 602, 521, 713, 744, 580, 496, 554, 572, 502, 502, 667, 697, 614, 613, 557, 528, 524, 616, 831, 891, 785, 644, 660, 660, 606, 704, 910, 888, 731, 670, 702, 716, 645, 783, 888, 738, 665, 749, 764, 719, 657, 929, 916, 787, 809, 781, 972, 836, 641, 840, 808, 747, 721, 708, 912, 777, 548, 684, 751, 635, 546, 542, 635, 551, 520, 696, 713, 582, 515, 531, 558, 610, 657, 661, 666, 577, 527, 585, 529, 551, 650, 581, 611, 565, 581, 592, 509, 518, 584, 587, 560, 585, 614, 653, 554, 594, 655, 617, 600, 551, 694, 713, 579, 594, 677, 602, 591, 661, 671, 671, 628, 631, 627, 533, 561, 631, 625, 588, 659, 702, 587, 596, 586, 634, 677, 580, 508, 598, 674, 573, 495, 604, 681, 591, 487, 593, 638, 651, 574, 698, 696, 670, 618, 641, 726, 575, 554, 654, 660, 607, 529, 541, 600, 599, 593, 601, 651, 584, 513, 568, 641, 574, 469, 543, 597, 615, 579, 606, 649, 622, 559, 643, 679, 632, 609, 678, 706, 544, 589, 486, 467, 504, 561, 576, 496, 526, 574, 656, 581, 562, 624, 646, 630, 478, 581, 618, 520, 488, 560, 623, 535, 543, 615, 667, 574, 582, 608, 567, 535, 544, 533, 526, 588, 575, 475, 466, 504, 603, 566, 531, 659, 620, 487, 495, 567, 636, 556, 534, 671, 669, 540, 554, 583, 561, 519, 487, 581, 649, 557, 543, 605, 634, 544, 623, 584, 599, 585, 510, 664, 680, 539, 632, 702, 628, 541, 618, 792, 683, 659, 656, 660, 659, 556, 565, 673, 594, 593, 575, 605, 581, 627, 686, 603, 499, 495, 551, 608, 602, 649, 566, 514, 502, 471, 619, 681, 608, 614, 512, 487, 495, 477, 511, 604, 551, 541, 617, 589, 642, 554, 541, 579, 579, 620, 656, 635, 657, 621, 552, 525, 543, 595, 581, 591, 644, 591, 561, 602, 658, 609, 583, 612, 568, 587, 646, 594, 555, 587, 599, 558, 606, 607, 615, 625, 592, 594, 638, 583, 546, 538, 568, 567, 543, 486, 573, 585, 628, 540, 554, 609, 613, 533, 516, 602, 611, 539, 621, 599, 539, 557, 547, 600, 504, 501, 515, 485, 445, 494, 513, 515, 501, 448, 486, 519, 490, 489, 492, 490, 545, 439, 431, 480, 610, 540, 471, 542, 464, 423, 444, 532, 493, 499, 490, 459, 473, 480, 484, 448, 376, 380, 461, 424, 376, 350, 398, 422, 304, 322, 399, 392, 503, 408, 417, 458, 389, 400, 426, 457, 415, 438, 459, 419, 440, 394, 360, 456, 436, 414, 435, 448, 485, 398, 397, 483]"
0.09337417781353,-0.180423527956009,0.0153713766485453,-0.519184231758118,-0.191724926233292,-0.215952396392822,-0.277702927589417,-0.383925199508667,-1.12581253051758,15.75,-0.136303663253784,0.485658645629883,17.75,-0.0231502056121826,-0.485801696777344,17.75,0.0210525989532471,0,16,0.0319244861602783,-0.357484817504883,16.5,"[505, 528, 522, 512, 522, 513, 518, 523, 493, 525, 585, 675, 573, 584, 696, 596, 456, 530, 571, 569, 517, 548, 613, 513, 504, 512, 544, 529, 470, 477, 495, 482, 501, 464, 552, 507, 431, 450, 440, 473, 614, 550, 548, 528, 508, 592, 463, 476, 611, 621, 591, 620, 594, 490, 448, 485, 628, 557, 493, 560, 608, 538, 484, 558, 481, 483, 499, 544, 529, 483, 490, 492, 503, 479, 604, 591, 587, 528, 484, 565, 505, 522, 542, 446, 537, 507, 455, 533, 496, 527, 535, 458, 457, 500, 547, 500, 557, 504, 511, 547, 499, 507, 477, 504, 579, 628, 693, 573, 584, 677, 562, 509, 512, 687, 781, 629, 516, 581, 611, 515, 587, 680, 723, 659, 589, 604, 671, 614, 478, 569, 625, 596, 534, 566, 653, 555, 646, 855, 712, 544, 626, 610, 647, 582, 851, 1136, 792, 563, 618, 639, 847, 599, 611, 863, 697, 537, 568, 609, 790, 560, 469, 567, 628, 606, 535, 526, 575, 556, 548, 593, 614, 565, 575, 593, 608, 610, 473, 587, 645, 611, 569, 669, 689, 607, 550, 602, 641, 579, 590, 751, 740, 567, 596, 611, 614, 509, 583, 751, 749, 646, 595, 699, 612, 535, 544, 735, 819, 625, 568, 614, 556, 559, 618, 675, 635, 573, 536, 548, 543, 538, 587, 601, 526, 519, 540, 629, 638, 494, 487, 500, 498, 513, 535, 549, 609, 571, 563, 553, 560, 590, 467, 527, 595, 573, 536, 542, 603, 524, 519, 547, 630, 544, 481, 563, 557, 588, 557, 509, 541, 471, 459, 488, 473, 549, 569, 488, 524, 576, 457, 473, 565, 566, 457, 520, 495, 504, 518, 546, 597, 483, 510, 550, 574, 590, 560, 494, 547, 515, 564, 532, 587, 554, 462, 511, 586, 550, 497, 530, 643, 573, 534, 613, 737, 653, 508, 628, 628, 557, 517, 578, 624, 596, 643, 630, 538, 530, 560, 457, 531, 605, 504, 540, 460, 422, 444, 525, 478, 434, 528, 531, 516, 506, 514, 575, 554, 499, 587, 537, 481, 576, 607, 514, 553, 592, 572, 572, 510, 511, 560, 539, 513, 521, 545, 534, 517, 528, 540, 575, 489, 489, 547, 652, 709, 669, 573, 602, 594, 554, 687, 636, 735, 701, 605, 662, 594, 650, 563, 555, 630, 638, 546, 561, 527, 602, 555, 532, 486, 520, 519, 537, 498, 537, 571, 551, 577, 623, 551, 580, 573, 518, 637, 515, 524, 591, 563, 537, 566, 603, 653, 569, 627, 597, 503, 498, 515, 717, 652, 543, 590, 583, 613, 588, 495, 662, 581, 536, 575, 699, 632, 618, 605, 600, 559, 536, 563, 571, 568, 526, 548, 611, 559, 612, 589, 556, 550, 532, 552, 539, 458, 574, 610, 547, 546, 591, 594, 529, 581, 585, 583, 579, 609, 631, 611, 607, 814, 946, 1022, 802, 609, 748, 999, 983, 1455, 2276, 3190, 2198, 906, 1588, 3178, 3192, 1458, 3301, 4369, 2778, 997, 2216, 4214, 3952, 1271, 3130, 3603, 2028, 941, 2106, 3549, 3007, 1439, 3437, 3729, 1847, 806, 2255, 3775, 3074, 1086, 2553, 2663, 1272, 669, 1803, 2851, 2212, 723, 1461, 1691, 985, 591, 1157, 1692, 1394, 645, 858, 949, 637, 587, 679, 857, 853, 573, 589, 637, 560, 596, 558, 599, 595, 593, 546, 586, 514, 498, 520, 594, 669, 593, 539, 563, 561, 558, 585, 574, 613, 511, 623, 629, 638, 646, 661, 652, 601, 626, 740, 795, 657, 661, 731, 776, 680, 788, 862, 801, 643, 674, 891, 866, 760, 596, 673, 785, 655, 633, 817, 838, 681, 626, 702, 753, 655, 621, 758, 704, 608, 558, 730, 723, 628, 545, 609, 702, 553, 546, 579, 658, 586, 540, 682, 711, 611, 593, 618, 675, 587, 566, 547, 616, 650, 583, 691, 695, 573, 553, 617, 646, 633, 509, 743, 750, 602, 512, 588, 760, 626, 471, 610, 664, 623, 498, 517, 549, 526, 564, 611, 729, 777, 575, 585, 578, 580, 572, 535, 624, 664, 610, 530, 492, 631, 709, 554, 591, 586, 607, 628, 598, 681, 751, 635, 559, 588, 595, 653, 639, 699, 620, 514, 566, 570, 595, 588, 663, 649, 616, 625, 586, 531, 557, 631, 696, 643, 572, 610, 551, 529, 598, 599, 598, 599, 569, 620, 695, 630, 641, 642, 559, 608, 586, 540, 642, 712, 653, 543, 555, 609, 651, 602, 639, 660, 594, 532, 661, 672, 594, 573, 616, 631, 555, 542, 587, 583, 603, 558, 610, 620, 530, 660, 652, 529, 518, 492, 619, 596, 480, 490, 569, 586, 581, 525, 586, 595, 609, 509, 485, 616, 571, 571, 515, 524, 595, 535, 504, 567, 493, 582, 585, 534, 570, 557, 546, 466, 449, 492, 571, 598, 543, 477, 576, 534, 542, 574, 603, 614, 652, 592, 594, 601, 596, 513, 498, 586, 571, 523, 619, 573, 535, 550, 524, 566, 537, 594, 575, 525, 532, 578, 541, 539, 463, 528, 562, 513, 460, 487, 550, 506, 450, 523, 522, 463, 474, 516, 627, 629, 579, 591, 599, 564, 551, 510, 485, 452, 483, 555, 541, 554, 548, 458, 466, 520, 525, 500, 526, 582, 541, 529, 451, 508, 554, 545, 516, 527, 511, 515, 508, 635, 497, 463, 629, 607, 565, 565, 588, 586, 583, 576, 513, 526, 553, 494, 478, 591, 663, 547, 480, 528, 547, 520, 524, 532, 628, 569, 493, 556, 665, 526, 631, 661, 611, 607, 647, 740, 614, 547, 675, 702, 593, 581, 690, 753, 528, 528, 603, 575, 563, 553, 692, 643, 586, 606, 744, 665, 558, 685, 667, 657, 588, 693, 694, 569, 611, 630, 592, 654, 461, 646, 659, 506, 529, 578, 608, 548, 515, 553, 535, 468, 497, 493, 498, 515, 489, 507, 557, 510, 512, 553, 511, 514, 416, 478, 569, 502, 506, 569, 532, 489, 378, 493, 558, 492, 458, 493, 541, 523, 436, 440, 527, 500, 415, 453, 438, 464, 480, 485, 533, 504, 514, 498, 486, 497, 546, 482, 452, 506, 518, 450, 373, 470, 449, 456, 455, 483, 467, 516, 420, 416, 455, 458, 472, 435, 376, 540, 536, 442, 446, 405, 393, 414, 400, 439, 471, 465, 424, 416, 440, 406, 369, 374, 339, 366, 412, 479, 428, 413, 404, 399, 385, 352]"
0.17928946018219,-0.182644963264465,-0.0116296261548996,-0.0533683896064758,-0.214367270469666,-0.188173785805702,0.0547043085098267,-1.30744230747223,1.52549743652344,19.75,-0.569155335426331,0.965595245361328,17,-0.34628164768219,-0.423574447631836,16.5,-0.00453245639801025,0.289249420166016,19.5,-0.0016714334487915,0.216293334960938,19,"[605, 561, 570, 550, 468, 546, 572, 559, 532, 569, 612, 543, 489, 617, 658, 544, 524, 555, 618, 583, 568, 639, 616, 486, 463, 552, 599, 644, 598, 498, 523, 528, 422, 520, 563, 527, 531, 434, 486, 525, 520, 511, 441, 590, 597, 479, 452, 502, 568, 504, 430, 437, 492, 561, 528, 473, 466, 491, 499, 525, 531, 472, 558, 541, 546, 540, 527, 556, 589, 488, 550, 586, 561, 591, 511, 479, 576, 520, 491, 506, 507, 525, 461, 495, 533, 506, 509, 474, 543, 530, 455, 462, 551, 604, 481, 462, 524, 563, 564, 512, 545, 551, 531, 565, 548, 599, 621, 627, 591, 493, 549, 585, 521, 564, 585, 647, 590, 566, 554, 498, 534, 497, 502, 529, 549, 571, 567, 486, 476, 496, 556, 451, 487, 570, 584, 533, 497, 543, 656, 572, 616, 660, 637, 629, 562, 550, 625, 621, 613, 572, 609, 666, 443, 551, 531, 517, 594, 580, 563, 534, 507, 573, 563, 562, 572, 607, 615, 567, 725, 703, 770, 686, 684, 644, 744, 810, 765, 762, 1102, 957, 820, 740, 958, 1054, 769, 742, 968, 873, 779, 721, 872, 997, 668, 647, 667, 726, 730, 633, 597, 721, 615, 622, 712, 725, 643, 590, 664, 663, 492, 584, 638, 563, 466, 556, 627, 551, 599, 647, 671, 605, 480, 552, 650, 647, 828, 931, 796, 600, 569, 615, 733, 765, 944, 1105, 856, 596, 610, 790, 876, 764, 830, 1019, 960, 725, 582, 708, 855, 771, 758, 949, 896, 627, 541, 783, 854, 700, 719, 798, 701, 557, 614, 840, 855, 682, 635, 676, 612, 498, 584, 729, 689, 575, 518, 607, 542, 526, 500, 644, 638, 527, 505, 603, 692, 646, 552, 589, 655, 525, 564, 571, 591, 593, 622, 640, 599, 529, 627, 672, 637, 607, 667, 679, 617, 610, 566, 653, 637, 498, 443, 498, 603, 605, 537, 558, 577, 598, 529, 483, 630, 672, 564, 634, 623, 576, 554, 639, 722, 656, 643, 591, 586, 614, 651, 615, 655, 720, 604, 530, 508, 606, 702, 584, 493, 591, 629, 608, 587, 547, 603, 661, 565, 580, 562, 635, 631, 510, 520, 580, 547, 558, 553, 579, 643, 571, 469, 571, 591, 576, 510, 537, 556, 511, 551, 535, 502, 540, 490, 543, 560, 616, 625, 585, 612, 560, 576, 544, 554, 586, 582, 648, 624, 562, 604, 604, 541, 564, 606, 599, 551, 545, 595, 673, 566, 485, 589, 652, 544, 471, 694, 859, 860, 569, 708, 872, 685, 625, 933, 1392, 1242, 772, 1023, 1159, 857, 682, 969, 1269, 1104, 892, 981, 1098, 991, 793, 890, 1049, 1161, 910, 1112, 1586, 1292, 694, 856, 1039, 1239, 976, 1305, 1884, 1515, 802, 838, 922, 989, 863, 1172, 1591, 1313, 772, 635, 689, 676, 551, 726, 936, 841, 616, 941, 975, 1333, 993, 656, 662, 1268, 1474, 1878, 2293, 3749, 2631, 1227, 1404, 3949, 4395, 2619, 2696, 4962, 3373, 1554, 1782, 5641, 6363, 2834, 2359, 3351, 2096, 1213, 1648, 3839, 4548, 2935, 7488, 8132, 3784, 1301, 4970, 8967, 7536, 2014, 7215, 7915, 3724, 1428, 4882, 9122, 7574, 989, 2962, 3205, 1561, 881, 2109, 3953, 3371, 851, 989, 1056, 748, 642, 869, 1223, 1220, 629, 851, 749, 510, 538, 653, 763, 604, 685, 733, 674, 655, 648, 726, 789, 661, 679, 725, 589, 654, 616, 657, 651, 581, 753, 716, 742, 726, 738, 691, 695, 823, 824, 1083, 1430, 985, 653, 925, 1433, 1428, 888, 1253, 1521, 977, 615, 1107, 1721, 1620, 795, 964, 989, 840, 737, 1059, 1199, 977, 762, 1030, 976, 730, 754, 869, 779, 677, 614, 843, 918, 649, 551, 742, 734, 668, 663, 710, 672, 631, 639, 606, 569, 562, 704, 677, 802, 835, 678, 626, 643, 665, 628, 665, 765, 689, 547, 627, 618, 567, 676, 658, 650, 561, 515, 677, 592, 631, 709, 727, 825, 733, 640, 673, 656, 730, 687, 625, 766, 728, 608, 628, 610, 728, 637, 688, 787, 670, 575, 634, 648, 674, 712, 731, 638, 580, 568, 646, 650, 661, 601, 612, 574, 609, 639, 615, 577, 618, 576, 720, 670, 552, 624, 589, 618, 599, 641, 789, 701, 638, 672, 641, 640, 677, 648, 798, 700, 564, 659, 694, 637, 691, 617, 779, 768, 547, 547, 729, 668, 560, 542, 777, 761, 473, 522, 689, 642, 477, 676, 791, 720, 588, 703, 643, 619, 590, 766, 665, 519, 654, 700, 649, 639, 687, 675, 599, 541, 617, 673, 678, 552, 656, 594, 531, 549, 567, 493, 514, 540, 600, 646, 569, 570, 647, 598, 497, 615, 723, 608, 673, 655, 573, 648, 680, 715, 627, 594, 604, 580, 577, 592, 545, 552, 582, 594, 519, 565, 567, 530, 590, 539, 552, 602, 699, 662, 602, 553, 573, 597, 511, 605, 707, 570, 589, 598, 604, 612, 561, 605, 629, 569, 586, 521, 522, 638, 614, 622, 547, 531, 545, 442, 512, 629, 623, 653, 585, 546, 572, 593, 595, 595, 608, 595, 564, 575, 610, 570, 585, 613, 585, 524, 563, 559, 549, 543, 517, 578, 489, 594, 510, 557, 662, 580, 528, 592, 603, 620, 626, 611, 592, 579, 630, 640, 663, 618, 622, 739, 703, 548, 536, 646, 741, 590, 586, 685, 623, 566, 492, 600, 720, 609, 569, 694, 626, 583, 532, 696, 763, 546, 549, 674, 618, 531, 555, 580, 610, 590, 561, 621, 582, 494, 582, 581, 489, 554, 625, 637, 589, 543, 644, 643, 563, 571, 732, 696, 636, 642, 650, 691, 668, 550, 724, 735, 567, 575, 655, 619, 587, 694, 783, 722, 651, 682, 685, 601, 618, 584, 641, 652, 641, 678, 547, 544, 632, 575, 566, 565, 531, 605, 607, 577, 564, 666, 557, 479, 469, 551, 639, 614, 631, 629, 544, 561, 560, 502, 444, 481, 580, 600, 581, 497, 560, 565, 474, 490, 513, 565, 522, 452, 511, 531, 442, 470, 524, 553, 497, 502, 538, 543, 476, 513, 517, 527, 453, 450, 536, 496, 460, 378, 496, 585, 557, 497, 502, 526, 536, 464, 529, 528, 471, 412, 388, 474, 510, 458, 503, 448, 407, 443, 429, 435, 444, 506, 479, 412, 450, 425, 427, 448, 437, 403, 351, 408, 459, 487, 424, 441, 394, 428, 469]"
0.207571029663086,0.0112924575805664,0.177319839596748,-0.456943988800049,0.0132844001054764,0.212834984064102,-0.524723410606384,-0.217903971672058,-0.906944274902344,17.5,0.0224219560623169,0.139474868774414,17.25,0.110684514045715,-0.288677215576172,21.5,0.113259434700012,-0.212717056274414,18.75,0.121556401252747,-0.143623352050781,22.75,"[546, 581, 559, 638, 694, 633, 557, 581, 516, 529, 627, 693, 674, 530, 614, 645, 543, 491, 557, 578, 596, 570, 528, 608, 533, 513, 528, 503, 516, 463, 443, 536, 514, 538, 516, 448, 494, 518, 478, 492, 552, 493, 484, 518, 495, 541, 507, 489, 486, 512, 503, 481, 519, 614, 568, 507, 479, 427, 495, 483, 481, 564, 591, 592, 519, 508, 452, 462, 487, 550, 586, 501, 603, 585, 476, 518, 535, 546, 570, 545, 486, 503, 493, 458, 436, 457, 563, 560, 503, 513, 461, 494, 500, 575, 629, 556, 438, 451, 454, 424, 430, 489, 526, 493, 589, 606, 594, 515, 486, 573, 587, 507, 477, 483, 568, 567, 533, 578, 584, 464, 541, 487, 517, 540, 494, 515, 531, 533, 516, 532, 641, 581, 446, 539, 541, 438, 605, 615, 625, 514, 422, 547, 567, 489, 655, 524, 432, 536, 520, 539, 468, 533, 560, 532, 529, 470, 515, 577, 543, 558, 526, 461, 501, 501, 486, 463, 543, 617, 525, 522, 546, 487, 461, 568, 564, 492, 610, 588, 598, 551, 552, 658, 540, 543, 515, 567, 601, 577, 592, 681, 573, 498, 545, 438, 458, 481, 610, 600, 445, 516, 510, 555, 476, 441, 450, 523, 566, 489, 505, 545, 494, 540, 535, 544, 559, 496, 491, 437, 475, 628, 624, 522, 509, 493, 461, 540, 540, 468, 544, 548, 481, 462, 504, 609, 608, 575, 589, 561, 565, 539, 451, 531, 619, 648, 555, 562, 648, 565, 514, 641, 601, 682, 569, 628, 762, 580, 545, 563, 556, 565, 572, 550, 569, 538, 487, 499, 502, 488, 485, 464, 506, 553, 522, 529, 507, 469, 540, 523, 524, 539, 461, 635, 599, 578, 577, 577, 626, 618, 552, 591, 564, 540, 494, 580, 631, 618, 589, 511, 503, 522, 513, 592, 632, 593, 534, 557, 638, 620, 513, 568, 672, 637, 465, 519, 614, 575, 598, 649, 655, 590, 569, 590, 591, 597, 687, 616, 537, 545, 640, 602, 604, 658, 718, 647, 528, 569, 710, 618, 574, 643, 690, 613, 536, 608, 551, 462, 508, 556, 604, 550, 564, 649, 538, 533, 557, 514, 554, 552, 466, 539, 682, 538, 531, 522, 602, 581, 506, 665, 555, 529, 570, 531, 606, 561, 519, 611, 616, 564, 540, 484, 545, 646, 575, 537, 519, 589, 542, 523, 592, 631, 606, 518, 594, 593, 625, 705, 620, 538, 635, 672, 635, 558, 523, 564, 499, 550, 562, 606, 667, 529, 543, 621, 578, 558, 527, 625, 610, 513, 584, 670, 559, 517, 529, 564, 649, 684, 685, 619, 544, 532, 613, 602, 568, 600, 674, 695, 500, 548, 715, 619, 657, 648, 614, 667, 639, 618, 667, 615, 619, 622, 633, 645, 648, 563, 587, 644, 522, 601, 650, 614, 635, 580, 573, 578, 726, 650, 816, 771, 584, 629, 865, 903, 1222, 2073, 2663, 1722, 803, 1368, 2770, 2730, 1131, 3754, 4450, 2594, 764, 2381, 4392, 3580, 1878, 4895, 5383, 3273, 897, 3446, 5306, 3642, 2926, 7368, 8046, 4649, 945, 5218, 8219, 6178, 2427, 6818, 7287, 3754, 775, 4694, 7512, 5672, 1034, 2382, 2677, 1647, 618, 1729, 2682, 2069, 620, 742, 1000, 853, 674, 655, 954, 874, 679, 720, 701, 584, 590, 636, 686, 710, 606, 678, 655, 593, 633, 568, 551, 566, 534, 613, 623, 515, 509, 571, 579, 504, 851, 845, 581, 540, 633, 654, 618, 604, 1049, 1138, 718, 615, 720, 861, 700, 617, 847, 929, 900, 674, 694, 747, 629, 676, 770, 777, 712, 643, 653, 666, 637, 659, 778, 1041, 1093, 785, 529, 649, 674, 621, 743, 718, 844, 779, 576, 613, 620, 627, 627, 568, 476, 587, 640, 588, 612, 645, 569, 664, 690, 658, 641, 650, 639, 707, 673, 781, 778, 672, 728, 790, 704, 655, 668, 744, 688, 634, 546, 709, 700, 641, 663, 708, 686, 635, 668, 601, 553, 646, 698, 620, 691, 711, 656, 562, 504, 665, 753, 632, 708, 695, 632, 589, 583, 751, 767, 538, 563, 690, 628, 507, 630, 769, 664, 547, 548, 617, 719, 612, 622, 730, 643, 504, 533, 592, 663, 598, 517, 663, 659, 576, 574, 612, 605, 554, 580, 665, 725, 613, 501, 566, 699, 619, 536, 659, 591, 632, 617, 654, 618, 551, 573, 594, 496, 692, 751, 571, 525, 637, 655, 566, 629, 707, 691, 569, 554, 689, 647, 561, 504, 531, 598, 540, 634, 613, 569, 559, 528, 491, 556, 547, 524, 553, 627, 636, 574, 626, 475, 535, 575, 598, 653, 597, 503, 591, 500, 527, 595, 621, 611, 498, 549, 627, 657, 628, 621, 640, 602, 533, 578, 592, 589, 576, 547, 562, 559, 502, 537, 525, 530, 547, 508, 589, 552, 524, 582, 510, 510, 568, 500, 520, 509, 549, 564, 572, 574, 547, 527, 556, 508, 517, 642, 650, 618, 639, 582, 581, 576, 539, 504, 621, 603, 575, 577, 534, 645, 558, 553, 604, 586, 562, 595, 620, 667, 561, 532, 544, 624, 571, 553, 552, 588, 596, 670, 606, 558, 594, 537, 507, 546, 628, 647, 563, 537, 552, 495, 599, 590, 599, 534, 559, 680, 623, 550, 644, 622, 550, 493, 550, 625, 596, 524, 655, 620, 478, 578, 618, 650, 645, 617, 612, 636, 557, 581, 530, 503, 588, 556, 514, 492, 458, 546, 562, 490, 540, 563, 537, 516, 502, 508, 560, 548, 556, 458, 533, 503, 435, 579, 581, 671, 613, 585, 631, 603, 608, 561, 580, 638, 624, 597, 604, 534, 552, 497, 535, 559, 527, 578, 613, 513, 450, 488, 610, 595, 537, 544, 557, 592, 493, 571, 645, 596, 536, 568, 678, 665, 489, 613, 614, 518, 520, 511, 608, 659, 589, 529, 453, 510, 547, 501, 481, 571, 644, 558, 504, 586, 581, 599, 555, 587, 694, 532, 503, 554, 534, 592, 530, 558, 637, 512, 520, 479, 554, 553, 512, 517, 495, 527, 500, 464, 507, 451, 493, 467, 407, 443, 428, 441, 466, 413, 482, 480, 420, 384, 458, 480, 440, 331, 446, 490, 398, 366, 422, 401, 353, 368, 437, 394, 325, 409, 416, 420, 479, 446, 372, 365, 421, 326, 392, 380, 375, 413, 357, 308, 330, 407, 378, 405, 365, 389, 394, 367, 422]"
